time_s,forward_cmd_m_s,yaw_cmd_rad_s,gyro_x,gyro_y,gyro_z,grav_x,grav_y,grav_z,left_contact,right_contact,left_hip_yaw_velocity_rad_s,left_hip_roll_velocity_rad_s,left_hip_pitch_velocity_rad_s,left_knee_velocity_rad_s,left_ankle_velocity_rad_s,neck_pitch_velocity_rad_s,head_pitch_velocity_rad_s,head_yaw_velocity_rad_s,head_roll_velocity_rad_s,right_hip_yaw_velocity_rad_s,right_hip_roll_velocity_rad_s,right_hip_pitch_velocity_rad_s,right_knee_velocity_rad_s,right_ankle_velocity_rad_s,left_hip_yaw_action,left_hip_roll_action,left_hip_pitch_action,left_knee_action,left_ankle_action,neck_pitch_action,head_pitch_action,head_yaw_action,head_roll_action,right_hip_yaw_action,right_hip_roll_action,right_hip_pitch_action,right_knee_action,right_ankle_action,left_hip_yaw_unclipped_target_rad,left_hip_roll_unclipped_target_rad,left_hip_pitch_unclipped_target_rad,left_knee_unclipped_target_rad,left_ankle_unclipped_target_rad,neck_pitch_unclipped_target_rad,head_pitch_unclipped_target_rad,head_yaw_unclipped_target_rad,head_roll_unclipped_target_rad,right_hip_yaw_unclipped_target_rad,right_hip_roll_unclipped_target_rad,right_hip_pitch_unclipped_target_rad,right_knee_unclipped_target_rad,right_ankle_unclipped_target_rad,left_hip_yaw_target_rad,left_hip_roll_target_rad,left_hip_pitch_target_rad,left_knee_target_rad,left_ankle_target_rad,neck_pitch_target_rad,head_pitch_target_rad,head_yaw_target_rad,head_roll_target_rad,right_hip_yaw_target_rad,right_hip_roll_target_rad,right_hip_pitch_target_rad,right_knee_target_rad,right_ankle_target_rad,left_hip_yaw_actual_rad,left_hip_roll_actual_rad,left_hip_pitch_actual_rad,left_knee_actual_rad,left_ankle_actual_rad,neck_pitch_actual_rad,head_pitch_actual_rad,head_yaw_actual_rad,head_roll_actual_rad,right_hip_yaw_actual_rad,right_hip_roll_actual_rad,right_hip_pitch_actual_rad,right_knee_actual_rad,right_ankle_actual_rad
15.381427002999999,0.0,0.0,-0.002181661564992912,-0.001090830782496456,0.002181661564992912,-0.07140623259370117,-0.07548658874191266,-0.994586811126552,1.0,1.0,0.0,-0.0,-0.0,-0.07671776931843206,-0.0,-0.0,-0.0,0.0,0.0,-0.0,0.0,0.0,-0.07671776931843206,0.0,0.08111155033111572,-0.0263400599360466,0.12104813754558563,0.20416447520256042,0.14325064420700073,0.00645606592297554,-0.13944868743419647,0.08381520211696625,-0.043113794177770615,-0.03846586495637894,-0.011627024039626122,0.11254590004682541,0.1360326111316681,0.32154104113578796,0.022721348563209176,0.11558803357183933,0.03863961435854435,0.01177120953798294,-0.020037874579429626,-0.20625469367951155,-0.17675743624567986,0.020953800529241562,-0.010778448544442654,-0.005427676253020763,0.11926629254594445,0.03983018081635237,-0.005261756479740143,0.02453472465276718,0.022721348563209176,0.11558803357183933,0.03863961435854435,0.0,-0.020037874579429626,-0.20625469367951155,-0.17675743624567986,0.020953800529241562,-0.010778448544442654,-0.005427676253020763,0.11926629254594445,0.03983018081635237,-0.005261756479740143,0.02453472465276718,0.014010357862688824,0.1171497718862069,0.011443905739170479,0.007669903939428124,-0.07976700097005329,-0.21322332951610434,-0.13805827090970757,0.01000837242940511,0.011465995062515957,-0.00422696928217365,0.11884737729146713,0.00937432703707887,-0.0011590077064024887,-0.06156376228714382
15.391613833000008,0.0,0.0,-0.00545415391248228,-0.001090830782496456,-0.001090830782496456,-0.07140623259370117,-0.07548658874191266,-0.994586811126552,1.0,1.0,0.0,-0.0,-0.0,-0.30687107727372825,0.15343553863686413,-0.0,-0.0,0.0,0.0,-0.0,0.0,0.0,-0.2301533079552962,0.07671776931843206,0.08948072791099548,-0.026412710547447205,0.08204750716686249,0.227827250957489,0.10158027708530426,-0.0021166428923606873,-0.17191340029239655,0.11027491092681885,-0.04144001007080078,-0.058059532195329666,-0.0250796377658844,0.11757833510637283,0.11871092021465302,0.3659246265888214,0.024813642958179116,0.11556987091898918,0.028889456763863564,0.017686903476715088,-0.030455466359853745,-0.2083978708833456,-0.18487361446022987,0.027568727731704712,-0.010360002517700195,-0.010326093062758446,0.11590313911437988,0.041088289581239223,-0.009592179208993912,0.03563062101602554,0.024813642958179116,0.11556987091898918,0.028889456763863564,0.0,-0.030455466359853745,-0.2083978708833456,-0.18487361446022987,0.027568727731704712,-0.010360002517700195,-0.010326093062758446,0.11590313911437988,0.041088289581239223,-0.009592179208993912,0.03563062101602554,0.014010357862688824,0.1171497718862069,0.011443905739170479,-0.0,-0.07516505860639633,-0.21322332951610434,-0.13805827090970757,0.01000837242940511,0.011465995062515957,-0.00422696928217365,0.11884737729146713,0.00937432703707887,-0.007294930857945255,-0.058495800711372656
15.410698518999993,0.0,0.0,-0.002181661564992912,-0.001090830782496456,0.001090830782496456,-0.19845159429537343,-0.07517105844521721,-0.9772237597878237,1.0,1.0,0.0,-0.0,-0.0,-0.30687107727372825,0.2301533079552962,-0.0,-0.0,0.0,0.0,-0.0,0.0,0.0,-0.2301533079552962,0.15343553863686413,-0.18634389340877533,-0.13417768478393555,-0.23563700914382935,0.11132845282554626,0.022140946239233017,-0.2976648807525635,-0.3979383707046509,-0.1712815761566162,0.3278505802154541,0.16663703322410583,-0.09336747229099274,0.5122518539428711,0.3630436956882477,0.9543137550354004,-0.04414251237176359,0.0886286273598671,-0.050531672313809395,-0.0114377960562706,-0.050315299071371555,-0.2822849303483963,-0.24137985706329346,-0.04282039403915405,0.08196264505386353,0.04584804829210043,0.0988311804831028,0.1397566692903638,0.051491014659404755,0.1827279031276703,-0.04414251237176359,0.0886286273598671,-0.050531672313809395,-0.0114377960562706,-0.050315299071371555,-0.2822849303483963,-0.24137985706329346,-0.04282039403915405,0.08196264505386353,0.04584804829210043,0.0988311804831028,0.1397566692903638,0.0,0.14043062101602555,0.015544338650574627,0.1171497718862069,0.011443905739170479,-0.007669903939428124,-0.07056311624273937,-0.21322332951610434,-0.13805827090970757,0.01000837242940511,0.011465995062515957,-0.00422696928217365,0.11884737729146713,0.00937432703707887,-0.013430854009487576,-0.05542783913560105
15.430899847999967,0.0,0.0,0.038179077387375956,0.004363323129985824,-0.011999138607461015,-0.19843654448794873,-0.0761675625307278,-0.9771496508876264,1.0,1.0,0.07671776931843206,-0.0,-0.0,-0.3835888465921603,0.2301533079552962,-0.0,-0.0,0.0,0.0,-0.0,0.0,0.0,-0.30687107727372825,0.15343553863686413,-0.27492451667785645,-0.23004725575447083,-0.6246006488800049,0.07574552297592163,0.1539314240217209,-0.4831101894378662,-0.5144099593162537,-0.518892765045166,0.62162184715271,0.252705842256546,-0.14463667571544647,0.879346489906311,0.5674147009849548,1.0877845287322998,-0.06628766818903387,0.06466123461723328,-0.14777258224785328,-0.020333528518676758,-0.017367679625749588,-0.328646257519722,-0.27049775421619415,-0.1297231912612915,0.1554054617881775,0.06736525055021048,0.08601387962698936,0.23153032828122377,0.10258376598358154,0.21609559655189514,-0.06628766818903387,0.06466123461723328,-0.14777258224785328,-0.020333528518676758,-0.017367679625749588,-0.328646257519722,-0.27049775421619415,-0.1297231912612915,0.1554054617881775,0.06736525055021048,0.08601387962698936,0.23153032828122377,0.0,0.21609559655189514,0.015544338650574627,0.1171497718862069,0.011443905739170479,-0.01380582709097089,-0.0659611738790824,-0.21322332951610434,-0.13805827090970757,0.01000837242940511,0.011465995062515957,-0.00422696928217365,0.11884737729146713,0.00937432703707887,-0.019566777161030342,-0.05235987755982989
15.450955936000014,0.0,0.0,0.09817477042468103,0.014180800172453928,-0.020725784867432664,-0.0713836548858566,-0.07954178687281163,-0.9942723359101454,1.0,1.0,0.0,-0.0,-0.0,-0.2301533079552962,0.15343553863686413,-0.15343553863686413,0.07671776931843206,0.0,0.0,-0.0,0.0,0.0,-0.2301533079552962,0.07671776931843206,0.03671137988567352,-0.1273449808359146,-0.2335841953754425,0.2108640968799591,0.1974107027053833,-0.23316457867622375,-0.3449574112892151,-0.24571898579597473,0.1705934703350067,0.10995884984731674,-0.13728593289852142,0.3081197142601013,0.3237663209438324,0.41089701652526855,0.011621305951848626,0.09033680334687233,-0.050018468871712685,0.013446114957332611,-0.006497859954833984,-0.26615985482931137,-0.2281346172094345,-0.06142974644899368,0.04264836758375168,0.031678502447903156,0.08785156533122063,0.08872363436967134,0.041671670973300934,0.04687371850013733,0.011621305951848626,0.09033680334687233,-0.050018468871712685,0.0,-0.006497859954833984,-0.26615985482931137,-0.2281346172094345,-0.06142974644899368,0.050605461788177486,0.031678502447903156,0.08785156533122063,0.12673032828122377,0.0,0.11129559655189514,0.010942396286917663,0.1171497718862069,0.011443905739170479,-0.018407769454627854,-0.06289321230331124,-0.21935925266764666,-0.13805827090970757,0.01000837242940511,0.011465995062515957,0.0003749730814833138,0.11884737729146713,0.00937432703707887,-0.022634738736801503,-0.05082589677194409
15.471641169000009,0.0,0.0,0.10144726277217041,0.011999138607461015,-0.0272707695624114,-0.19856872097931685,-0.08022978625426944,-0.9767976476457304,1.0,1.0,-0.6137421545474565,-0.0,-0.0,-0.15343553863686413,0.2301533079552962,-0.6137421545474565,-0.0,0.0,0.0,0.6137421545474565,-0.07671776931843206,0.0,-0.15343553863686413,0.07671776931843206,-0.3225800693035126,-0.19616077840328217,-0.40242713689804077,0.10884466022253036,0.13740074634552002,-0.3647845983505249,-0.4695999026298523,-0.3919236361980438,0.45849448442459106,0.2563938796520233,-0.17689266800880432,0.6230780482292175,0.4995603561401367,1.0027046203613281,-0.0782015563454479,0.07313285395503044,-0.09222920425236225,-0.012058744207024574,-0.021500349044799805,-0.29906485974788666,-0.2592952400445938,-0.09798090904951096,0.11462362110614777,0.0682872598990798,0.0779498815536499,0.1674632178619504,0.08562017977237701,0.19482561945915222,-0.0782015563454479,0.07313285395503044,-0.09222920425236225,-0.012058744207024574,-0.021500349044799805,-0.29906485974788666,-0.2592952400445938,-0.09798090904951096,0.11462362110614777,0.0682872598990798,0.0779498815536499,0.1674632178619504,0.0,0.19482561945915222,-0.005931392379824388,0.1171497718862069,0.011443905739170479,-0.019941750242513212,-0.05829126993965428,-0.23623304133438872,-0.1365242901218222,0.008474391641519308,0.009932014274630155,0.012646819384568402,0.11577941571569553,0.01244228861285003,-0.025702700312572664,-0.04929191598405873
15.491167167000015,0.0,0.0,0.0272707695624114,0.003272492347489368,0.019634954084936207,-0.19858459991372768,-0.07923324946052772,-0.9768757591715695,1.0,1.0,-0.6137421545474565,-0.0,-0.0,-0.07671776931843206,0.15343553863686413,-0.6904599238658886,-0.2301533079552962,-0.07671776931843206,-0.15343553863686413,0.30687107727372825,-0.15343553863686413,0.2301533079552962,-0.07671776931843206,0.15343553863686413,-0.45263993740081787,-0.30635544657707214,-0.7857492566108704,0.12348976731300354,0.30660802125930786,-0.5726703405380249,-0.5837666392326355,-0.7596848607063293,0.7467560172080994,0.35966408252716064,-0.22800852358341217,1.0479085445404053,0.729416012763977,1.1884913444519043,-0.11071652336977422,0.04558418691158295,-0.18805973418056965,-0.00839746743440628,0.020801469683647156,-0.35103629529476166,-0.2878369241952896,-0.18992121517658234,0.18668900430202484,0.09410481061786413,0.06517091765999794,0.27367084193974733,0.1430840939283371,0.24127230048179626,-0.11071652336977422,0.04558418691158295,-0.18805973418056965,-0.00839746743440628,0.020801469683647156,-0.3490658503988659,-0.2878369241952896,-0.18992121517658234,0.18668900430202484,0.09410481061786413,0.06517091765999794,0.2722632178619504,0.0,0.24127230048179626,-0.010533334743481351,0.1156157910983211,0.011443905739170479,-0.021475731030399015,-0.05522330836388312,-0.24543692606170264,-0.14112623248547917,0.01000837242940511,0.006864052698858994,0.020316723323996526,0.11271145413992437,0.018578211764392796,-0.025702700312572664,-0.047757935196172926
15.510163261000002,0.0,0.0,-0.1308996938995747,0.002181661564992912,0.14289883250703572,-0.07037464729676626,-0.07853402669349278,-0.994424363976045,1.0,1.0,-0.07671776931843206,-0.15343553863686413,-0.0,-0.15343553863686413,0.2301533079552962,-0.30687107727372825,-0.3835888465921603,0.07671776931843206,-0.07671776931843206,0.4603066159105924,-0.30687107727372825,0.30687107727372825,0.0,0.0,-0.09110735356807709,-0.21655067801475525,-0.361524760723114,0.2789492607116699,0.4012839198112488,-0.43319234251976013,-0.45349985361099243,-0.5253169536590576,0.3011835813522339,0.2871772050857544,-0.18590500950813293,0.6006788611412048,0.5200355052947998,0.41001397371292114,-0.020333377411589026,0.06803537905216217,-0.08200361020863056,0.030467405915260315,0.044470444321632385,-0.31616679579019547,-0.25527022778987885,-0.1313292384147644,0.07529589533805847,0.07598309125751257,0.07569679617881775,0.16186342108994722,0.09073896706104279,0.046652957797050476,-0.020333377411589026,0.06803537905216217,-0.08325973418056964,0.0,0.044470444321632385,-0.31616679579019547,-0.25527022778987885,-0.1313292384147644,0.08188900430202484,0.07598309125751257,0.07569679617881775,0.1674632178619504,0.0,0.13647230048179626,-0.016669257895024117,0.11101384873466413,0.011443905739170479,-0.024543692606170175,-0.05062136600022615,-0.25157284921324496,-0.1487961364249073,0.01000837242940511,0.006864052698858994,0.029520608051310453,0.10657553098838204,0.024714134915935118,-0.027236681100458467,-0.044689973620401766
15.529479834999961,0.0,0.0,0.015271630954950384,0.018544123302439753,-0.07635815477475191,-0.07037464729676626,-0.07853402669349278,-0.994424363976045,1.0,1.0,-0.6904599238658886,-0.2301533079552962,-0.0,-0.07671776931843206,0.2301533079552962,-0.5370243852290244,-0.4603066159105924,0.0,0.0,0.6137421545474565,-0.2301533079552962,0.30687107727372825,-0.15343553863686413,0.30687107727372825,-0.10212476551532745,-0.10598839819431305,-0.12083294242620468,0.22156623005867004,0.29605498909950256,-0.2597908675670624,-0.3119603395462036,-0.21334582567214966,0.03982827439904213,0.20589561760425568,-0.15702013671398163,0.3407374918460846,0.2918761372566223,0.3171052932739258,-0.023087730398401618,0.09567594900727272,-0.02183065563440323,0.016121648252010345,0.01816321164369583,-0.272816427052021,-0.21988534927368164,-0.053336456418037415,0.009957068599760532,0.05566269438713789,0.08291801437735558,0.09687807876616716,0.03369912505149841,0.023425787687301636,-0.023087730398401618,0.09567594900727272,-0.02183065563440323,0.0,0.01816321164369583,-0.272816427052021,-0.21988534927368164,-0.053336456418037415,0.009957068599760532,0.05566269438713789,0.08291801437735558,0.09687807876616716,0.0,0.031672300481796256,-0.03354304656176617,0.10487792558312181,0.011443905739170479,-0.024543692606170175,-0.04601942363656919,-0.26537867630421585,-0.15800002115222123,0.01000837242940511,0.006864052698858994,0.04025847356650974,0.10350756941261044,0.030850058067477884,-0.028770661888343825,-0.03702006968097364
15.549518886999977,0.0,0.0,-0.037088246604879506,-0.01090830782496456,-0.031634092692397225,-0.07037464729676626,-0.07853402669349278,-0.994424363976045,1.0,1.0,-0.6904599238658886,-0.3835888465921603,-0.0,-0.0,0.30687107727372825,-0.6137421545474565,-0.5370243852290244,-0.07671776931843206,0.0,0.3835888465921603,-0.15343553863686413,0.30687107727372825,-0.07671776931843206,0.4603066159105924,-0.14912720024585724,-0.09625320136547089,-0.04327898845076561,0.22313061356544495,0.27248382568359375,-0.2711000144481659,-0.30435964465141296,-0.10397063195705414,-0.006528601050376892,0.18366719782352448,-0.13377641141414642,0.3101089596748352,0.23689915239810944,0.38771840929985046,-0.034838339081034064,0.09810974821448326,-0.002442167140543461,0.01651274412870407,0.012270420789718628,-0.2756437137722969,-0.21798517554998398,-0.025992657989263535,-0.001632150262594223,0.05010558944195509,0.08872894570231438,0.08922094572335482,0.019954878836870193,0.041079066693782806,-0.034838339081034064,0.09810974821448326,-0.002442167140543461,0.0,0.012270420789718628,-0.2756437137722969,-0.21798517554998398,-0.025992657989263535,-0.001632150262594223,0.05010558944195509,0.08872894570231438,0.08922094572335482,0.0,0.041079066693782806,-0.04121295050119429,0.09874200243157905,0.009909924951284677,-0.024543692606170175,-0.03988350048502687,-0.2745825610315298,-0.1687378866674205,0.005406430065748147,0.008398033486744796,0.049462358293823665,0.09737164626106812,0.04005394279479181,-0.030304642676229628,-0.026282204165773912
15.569785325999987,0.0,0.0,0.0,0.03381575425739013,0.2007128639793479,-0.07038024827380172,-0.07752027346099899,-0.9945035082167634,1.0,1.0,-0.15343553863686413,-0.30687107727372825,-0.15343553863686413,0.07671776931843206,0.30687107727372825,-0.2301533079552962,-0.5370243852290244,-0.2301533079552962,0.15343553863686413,0.15343553863686413,-0.4603066159105924,0.5370243852290244,0.0,0.5370243852290244,-0.19092145562171936,-0.12171180546283722,-0.08159515261650085,0.21035094559192657,0.2809031903743744,-0.3039848506450653,-0.3296373188495636,-0.11027668416500092,0.035157427191734314,0.1973080337047577,-0.15422967076301575,0.35014769434928894,0.2541603446006775,0.42505332827568054,-0.045286902924999595,0.09174509719014168,-0.012021208181977272,0.013317827135324478,0.014375261962413788,-0.28386492282152176,-0.22430459409952164,-0.02756917104125023,0.008789356797933578,0.05351579841226339,0.08361563086509705,0.09923062939196825,0.024270176887512207,0.050412796437740326,-0.045286902924999595,0.09174509719014168,-0.012021208181977272,0.0,0.014375261962413788,-0.28386492282152176,-0.22430459409952164,-0.02756917104125023,0.008789356797933578,0.05351579841226339,0.08361563086509705,0.09923062939196825,0.0,0.050412796437740326,-0.04121295050119429,0.09107209849215092,0.0037740017997419106,-0.019941750242513212,-0.0337475773334841,-0.2761165418194156,-0.1794757521826198,-0.0007294930857946191,0.014533956638287118,0.052530319869594826,0.08816776153375419,0.050791808309991096,-0.030304642676229628,-0.015544338650574627
15.58982735799998,0.0,0.0,-0.08290313946973066,-0.08399397025222712,0.14726215563702155,-0.07140069758822318,-0.07650074741595339,-0.9945097164073942,1.0,1.0,-0.07671776931843206,-0.30687107727372825,-0.30687107727372825,0.15343553863686413,0.3835888465921603,-0.0,-0.6137421545474565,-0.30687107727372825,0.2301533079552962,-0.0,-0.3835888465921603,0.5370243852290244,-0.07671776931843206,0.6137421545474565,-0.25339099764823914,-0.17615000903606415,-0.15184536576271057,0.21908293664455414,0.3923371136188507,-0.3236076533794403,-0.3359954059123993,-0.24618828296661377,0.0719478577375412,0.23150083422660828,-0.21623793244361877,0.4636496901512146,0.2820136547088623,0.3214447796344757,-0.06090428843162954,0.07813554629683495,-0.0295837614685297,0.015500824898481369,0.04223374277353287,-0.2887706235051155,-0.22589411586523056,-0.06154707074165344,0.0179869644343853,0.06206399854272604,0.06811356544494629,0.12760612834244967,0.03123350441455841,0.024510659277439117,-0.06090428843162954,0.07813554629683495,-0.0295837614685297,0.0,0.04223374277353287,-0.2887706235051155,-0.22589411586523056,-0.06154707074165344,0.0179869644343853,0.06206399854272604,0.06811356544494629,0.12760612834244967,0.0,0.024510659277439117,-0.04274693128907965,0.08647015612849396,-0.002361921351800411,-0.01687378866674205,-0.026077673394055978,-0.2761165418194156,-0.19174759848570533,-0.006865416237336941,0.020669879789829884,0.052530319869594826,0.08203183838221142,0.05999569303730502,-0.03183862346411543,-0.0017385115596037365
15.60993483499999,0.0,0.0,0.030543261909900768,-0.2399827721492203,0.1265363707695889,-0.07858448070144285,-0.0755227476871009,-0.9940426519896796,1.0,1.0,0.0,-0.2301533079552962,-0.2301533079552962,0.30687107727372825,0.30687107727372825,-0.0,-0.5370243852290244,-0.30687107727372825,0.3835888465921603,-0.0,-0.15343553863686413,0.4603066159105924,0.0,0.6904599238658886,-0.32098570466041565,-0.19434021413326263,-0.17037518322467804,0.24094343185424805,0.5178719162940979,-0.2688087224960327,-0.3400436043739319,-0.41138356924057007,0.11826938390731812,0.27951687574386597,-0.2619926333427429,0.5225580930709839,0.33319172263145447,0.2209373563528061,-0.07780296518467367,0.07358799502253532,-0.03421621583402157,0.020965948700904846,0.07361744344234467,-0.2750708907842636,-0.2269061654806137,-0.10284589231014252,0.02956734597682953,0.07406800892204046,0.05667489022016525,0.142333229072392,0.04402802139520645,-0.0006161965429782867,-0.07780296518467367,0.07358799502253532,-0.03421621583402157,0.0,0.07361744344234467,-0.2750708907842636,-0.2269061654806137,-0.10284589231014252,0.02956734597682953,0.07406800892204046,0.05667489022016525,0.142333229072392,0.0,-0.0006161965429782867,-0.044280912076965454,0.0834021945527228,-0.008497844503343177,-0.007669903939428124,-0.019941750242513212,-0.2761165418194156,-0.2024854640009046,-0.013001339388879707,0.029873764517143367,0.052530319869594826,0.07896387680644026,0.06919957776461895,-0.03183862346411543,0.012067315531367154
15.630184829999962,0.0,0.0,-0.14835298641951802,-0.2007128639793479,0.11780972450961724,-0.08164468302148056,-0.072459656181564,-0.9940240157865259,1.0,1.0,-0.07671776931843206,-0.07671776931843206,-0.15343553863686413,0.3835888465921603,0.3835888465921603,-0.0,-0.5370243852290244,-0.30687107727372825,0.3835888465921603,-0.0,-0.07671776931843206,0.3835888465921603,0.0,0.6904599238658886,-0.3287258744239807,-0.1759229600429535,-0.06176958978176117,0.3471669554710388,0.6984400749206543,-0.18754559755325317,-0.2878851890563965,-0.5209760665893555,0.08726514875888824,0.31030070781707764,-0.2726401090621948,0.5561118721961975,0.3505460321903229,-0.07579860091209412,-0.07973800762556493,0.07819230854511261,-0.007064817473292351,0.04752182960510254,0.11875948309898376,-0.2547551095485687,-0.21386656165122986,-0.13024401664733887,0.02181628718972206,0.08176396694034338,0.05401302129030228,0.1507216738536954,0.04836659878492355,-0.07480018585920334,-0.07973800762556493,0.07819230854511261,-0.007064817473292351,0.0,0.11875948309898376,-0.2547551095485687,-0.21386656165122986,-0.13024401664733887,0.02181628718972206,0.08176396694034338,0.05401302129030228,0.1507216738536954,0.0,-0.07480018585920334,-0.045814892864851256,0.081868213764837,-0.011565806079114338,-0.006135923151542766,-0.012271846303085088,-0.2761165418194156,-0.21168934872821854,-0.01913726254042203,0.039077649244457294,0.052530319869594826,0.07896387680644026,0.07686948170404707,-0.03183862346411543,0.0258731426223376
15.650140047999969,0.0,0.0,-0.20616701789183017,-0.09708393964218458,0.028361600344907856,-0.08267036493394059,-0.07042290346224568,-0.9940856227859027,1.0,1.0,-0.2301533079552962,-0.07671776931843206,-0.15343553863686413,-0.0,0.3835888465921603,-0.0,-0.3835888465921603,-0.30687107727372825,0.3835888465921603,0.15343553863686413,0.0,0.3835888465921603,0.0,0.6137421545474565,-0.33310139179229736,-0.08827917277812958,0.12649571895599365,0.5089938640594482,0.8244567513465881,-0.10397800803184509,-0.2237992137670517,-0.5256693959236145,-0.03685520589351654,0.3286087214946747,-0.2574847340583801,0.4264203906059265,0.33605173230171204,-0.30939140915870667,-0.0808318869676441,0.10010325536131859,0.040001509711146355,0.0879785567522049,0.15026365220546722,-0.2338632121682167,-0.19784506782889366,-0.13141734898090363,-0.009213801473379135,0.08634097035974264,0.05780186504125595,0.11829880345612764,0.044743023812770844,-0.13319838792085648,-0.0808318869676441,0.10010325536131859,0.040001509711146355,0.0,0.15026365220546722,-0.2338632121682167,-0.19784506782889366,-0.13141734898090363,-0.009213801473379135,0.08634097035974264,0.05780186504125595,0.11829880345612764,0.0,-0.13319838792085648,-0.05195081601639358,0.081868213764837,-0.01309978686700014,-0.004601942363656963,-0.004601942363656963,-0.2761165418194156,-0.22089323345553247,-0.023739204904078992,0.04521357239600006,0.05406430065748063,0.07896387680644026,0.0845393856434752,-0.03337260425200079,0.03814498892542313
15.670258117000003,0.0,0.0,-0.2945243112740431,-0.11017390903214205,-0.1407171709420428,-0.08566412747934991,-0.06322828456809161,-0.9943157653853116,1.0,1.0,-0.30687107727372825,-0.0,-0.0,0.07671776931843206,0.4603066159105924,-0.0,-0.3835888465921603,-0.15343553863686413,0.2301533079552962,0.2301533079552962,-0.07671776931843206,0.3835888465921603,-0.07671776931843206,0.6137421545474565,-0.3343218266963959,-0.048776060342788696,0.24080030620098114,0.6298925876617432,0.871569812297821,-0.05969654768705368,-0.20673280954360962,-0.45109036564826965,-0.11807385087013245,0.34667420387268066,-0.22736109793186188,0.3218033015727997,0.347791850566864,-0.39095747470855713,-0.08113699569366872,0.10997903347015381,0.06857765652239323,0.11820323765277863,0.16204191744327545,-0.22279284708201885,-0.19357846677303314,-0.11277259141206741,-0.02951846271753311,0.09085734095424414,0.06533277407288551,0.09214453119784594,0.04767805337905884,-0.1535899043083191,-0.08113699569366872,0.10997903347015381,0.06857765652239323,0.0,0.16204191744327545,-0.22279284708201885,-0.19357846677303314,-0.11277259141206741,-0.02951846271753311,0.09085734095424414,0.06533277407288551,0.09214453119784594,0.0,-0.1535899043083191,-0.058086739167936344,0.081868213764837,-0.014633767654885499,-0.003067961575771161,0.004601942363656963,-0.2745825610315298,-0.2285631373949606,-0.029875128055621758,0.04981551475965702,0.06020022380902295,0.07742989601855446,0.08914132800713216,-0.03337260425200079,0.04888285444062242
15.690581814999973,0.0,0.0,-0.25416357232167425,-0.15707963267948966,-0.35997415822383044,-0.08668731943949097,-0.06119104901611127,-0.9943545465118081,1.0,1.0,-0.2301533079552962,-0.0,-0.0,0.07671776931843206,0.4603066159105924,0.2301533079552962,-0.2301533079552962,-0.30687107727372825,0.0,0.2301533079552962,-0.07671776931843206,0.2301533079552962,0.0,0.5370243852290244,-0.41449955105781555,-0.011348336935043335,0.33565032482147217,0.7385709881782532,0.9929320216178894,-0.05868324637413025,-0.22274528443813324,-0.4739759564399719,-0.20584578812122345,0.36129099130630493,-0.2730453908443451,0.1503770649433136,0.3521978557109833,-0.380875825881958,-0.10118142678402364,0.11933596432209015,0.09229016117751598,0.14537283778190613,0.19238246977329254,-0.222539521753788,-0.19758158549666405,-0.11849398910999298,-0.05146144703030586,0.0945115378126502,0.05391170084476471,0.049287972040474415,0.048779554665088654,-0.1510694921016693,-0.10118142678402364,0.11933596432209015,0.09229016117751598,0.0,0.19238246977329254,-0.222539521753788,-0.19758158549666405,-0.11849398910999298,-0.05146144703030586,0.0945115378126502,0.05391170084476471,0.049287972040474415,0.0,-0.1510694921016693,-0.06268868153159331,0.081868213764837,-0.014633767654885499,-0.003067961575771161,0.01380582709097089,-0.268446637879987,-0.23316507975861755,-0.03601105120716408,0.05134949554754238,0.06480216617267992,0.0743619344427833,0.09374327037078913,-0.03337260425200079,0.0596207199558217
15.71020384999997,0.0,0.0,-0.28579766501407144,-0.16253378659197193,-0.5683228376806536,-0.09077120732823174,-0.05405476391456497,-0.9944036757868084,1.0,1.0,-0.2301533079552962,-0.0,-0.0,-0.0,0.5370243852290244,0.2301533079552962,-0.15343553863686413,-0.3835888465921603,0.0,0.30687107727372825,-0.15343553863686413,0.2301533079552962,0.0,0.5370243852290244,-0.48697981238365173,-0.010534565895795822,0.41926711797714233,0.7872836589813232,1.100215196609497,-0.04782326519489288,-0.2432308793067932,-0.5007464289665222,-0.27172210812568665,0.3570716083049774,-0.3269847333431244,-0.01027790829539299,0.36486414074897766,-0.3459615707397461,-0.11930149211548269,0.11953940708190203,0.11319435946643353,0.15755100548267365,0.21920326352119446,-0.21982452645897865,-0.20270298421382904,-0.12518660724163055,-0.06793052703142166,0.09345669206231833,0.040426865220069885,0.009124228730797768,0.05194612592458725,-0.14234092831611633,-0.11930149211548269,0.11953940708190203,0.11319435946643353,0.0,0.21920326352119446,-0.21982452645897865,-0.20270298421382904,-0.12518660724163055,-0.06793052703142166,0.09345669206231833,0.040426865220069885,0.009124228730797768,0.0,-0.14234092831611633,-0.06729062389525027,0.081868213764837,-0.014633767654885499,-0.004601942363656963,0.026077673394055978,-0.2638446955163305,-0.23623304133438872,-0.04368095514659265,0.05134949554754238,0.07093808932422269,0.07129397286701214,0.09681123194656029,-0.03337260425200079,0.06882460468313563
15.730542678000006,0.0,0.0,-0.2901609881440573,-0.16035212502697901,-0.7515824091400581,-0.0928133268317586,-0.049976406755562315,-0.994428501768842,1.0,1.0,-0.2301533079552962,-0.0,-0.0,-0.2301533079552962,0.6137421545474565,0.30687107727372825,-0.0,-0.30687107727372825,0.0,0.2301533079552962,-0.15343553863686413,0.07671776931843206,0.0,0.3835888465921603,-0.5489444732666016,-0.010712098330259323,0.46783387660980225,0.8159122467041016,1.201322317123413,-0.04950066655874252,-0.2575296461582184,-0.5158860087394714,-0.31569433212280273,0.3326917588710785,-0.36865881085395813,-0.13907070457935333,0.3755294978618622,-0.31385350227355957,-0.13479265733622015,0.11949502397328615,0.1253360491245985,0.16470815241336823,0.24448004364967346,-0.22024387679994106,-0.20627767592668533,-0.12897150218486786,-0.07892358303070068,0.0873617297038436,0.03000834584236145,-0.023073970340192318,0.05461246520280838,-0.1343139111995697,-0.13479265733622015,0.11949502397328615,0.1253360491245985,0.0,0.24448004364967346,-0.22024387679994106,-0.20627767592668533,-0.12897150218486786,-0.07892358303070068,0.0873617297038436,0.03000834584236145,-0.023073970340192318,0.0,-0.1343139111995697,-0.07189256625890723,0.0834021945527228,-0.014633767654885499,-0.010737865515199285,0.038349519697141066,-0.25924275315267353,-0.23623304133438872,-0.04981687829813497,0.05134949554754238,0.07400605089999385,0.06975999207912634,0.09834521273444609,-0.03183862346411543,0.07649450862256375
15.750556654999968,0.0,0.0,-0.284706834231575,-0.18762289458939044,-0.8846637646046258,-0.09484449830760137,-0.047932165811368437,-0.9943374822571112,1.0,1.0,-0.30687107727372825,0.15343553863686413,-0.0,-0.15343553863686413,0.6904599238658886,0.2301533079552962,-0.0,-0.3835888465921603,-0.07671776931843206,0.15343553863686413,0.0,0.07671776931843206,0.07671776931843206,0.30687107727372825,-0.571877658367157,-0.008732739835977554,0.48299241065979004,0.8127068281173706,1.2287689447402954,-0.03975875675678253,-0.2574843764305115,-0.5077610015869141,-0.3285297751426697,0.3009515404701233,-0.3681820034980774,-0.22547227144241333,0.37004151940345764,-0.2620941400527954,-0.140525953611359,0.1199898635968566,0.12912568263709545,0.16390679776668549,0.25134170055389404,-0.21780839934945107,-0.2062663584947586,-0.12694025039672852,-0.08213244378566742,0.0794266751036048,0.030127547681331635,-0.04467436205595732,0.053240470588207245,-0.12137407064437866,-0.140525953611359,0.1199898635968566,0.12912568263709545,0.0,0.25134170055389404,-0.21780839934945107,-0.2062663584947586,-0.12694025039672852,-0.08213244378566742,0.0794266751036048,0.030127547681331635,-0.04467436205595732,0.0,-0.12137407064437866,-0.08263043177410652,0.08493617534060816,-0.014633767654885499,-0.012271846303085088,0.052155346788111956,-0.25464081078901657,-0.23623304133438872,-0.057486782237563094,0.04981551475965702,0.07860799326365081,0.06975999207912634,0.09987919352233189,-0.03183862346411543,0.08109645098622072
15.770605928000009,0.0,0.0,-0.2650718801466388,-0.1559888018969932,-0.9893835197242855,-0.09799714910704561,-0.04287375273433246,-0.9942627419819003,1.0,1.0,-0.5370243852290244,-0.0,0.07671776931843206,-0.07671776931843206,0.8438954625027527,0.2301533079552962,-0.0,-0.3835888465921603,-0.2301533079552962,-0.0,-0.07671776931843206,0.07671776931843206,0.07671776931843206,0.2301533079552962,-0.5972926616668701,0.006307579576969147,0.5009944438934326,0.8112053871154785,1.2733110189437866,-0.04916560649871826,-0.2672313451766968,-0.5185490846633911,-0.33109986782073975,0.2749648690223694,-0.3641831874847412,-0.3086448311805725,0.3550252914428711,-0.21696630120277405,-0.14687970443628728,0.12374994345009327,0.1336261909455061,0.16353143751621246,0.26247721910476685,-0.220160111784935,-0.20870310068130493,-0.12963727116584778,-0.08277496695518494,0.07293000724166632,0.03112725168466568,-0.06546750199049711,0.04948641359806061,-0.11009211093187332,-0.14687970443628728,0.12374994345009327,0.1336261909455061,0.0,0.26247721910476685,-0.220160111784935,-0.20870310068130493,-0.12963727116584778,-0.08277496695518494,0.07293000724166632,0.03112725168466568,-0.06546750199049711,0.0,-0.11009211093187332,-0.0933682972893058,0.08953811770426512,-0.01309978686700014,-0.012271846303085088,0.06902913545485401,-0.2485048876374738,-0.23623304133438872,-0.06515668617699122,0.04521357239600006,0.07860799326365081,0.06669203050335518,0.09987919352233189,-0.030304642676229628,0.08263043177410652
15.79041725899998,0.0,0.0,-0.28579766501407144,-0.09272061651219876,-1.074468320759009,-0.09790201270579708,-0.041812317926434174,-0.9943173165432517,1.0,1.0,-0.6137421545474565,0.30687107727372825,0.3835888465921603,-0.07671776931843206,0.8438954625027527,0.2301533079552962,0.15343553863686413,-0.3835888465921603,-0.3835888465921603,-0.0,-0.2301533079552962,0.0,0.0,0.0,-0.6169145703315735,0.01322813332080841,0.5267767310142517,0.8068856596946716,1.291085958480835,-0.04873939976096153,-0.2505645751953125,-0.5436098575592041,-0.3531852960586548,0.2529190480709076,-0.3803415894508362,-0.3517051041126251,0.3202180862426758,-0.17934948205947876,-0.15178518160246313,0.12548008188605309,0.14007176272571087,0.16245150566101074,0.26692095398902893,-0.22005356010049582,-0.20453640818595886,-0.13590246438980103,-0.0882963240146637,0.06741855200380087,0.027087651193141937,-0.07623257022351027,0.04078461229801178,-0.1006879061460495,-0.15178518160246313,0.12548008188605309,0.14007176272571087,0.0,0.26692095398902893,-0.22005356010049582,-0.20453640818595886,-0.13590246438980103,-0.0882963240146637,0.06741855200380087,0.027087651193141937,-0.07623257022351027,0.0,-0.1006879061460495,-0.10410616280450553,0.09414006006792208,-0.005429882927571572,-0.015339807878856249,0.08590292412159606,-0.24390294527381684,-0.23316507975861755,-0.07282659011641979,0.039077649244457294,0.07860799326365081,0.06055610735181241,0.09987919352233189,-0.028770661888343825,0.08263043177410652
15.810750864,0.0,0.0,-0.32506757318394386,0.016362461737446838,-1.1082840750163994,-0.096914812138084,-0.03570545710350464,-0.9946520193119148,1.0,1.0,-0.5370243852290244,0.2301533079552962,0.6137421545474565,-0.07671776931843206,0.8438954625027527,0.15343553863686413,0.2301533079552962,-0.30687107727372825,-0.3835888465921603,-0.0,-0.30687107727372825,0.0,0.07671776931843206,0.0,-0.6312869191169739,0.011645808815956116,0.5890851020812988,0.7705467939376831,1.24600350856781,-0.05773638188838959,-0.22466465830802917,-0.531964123249054,-0.33411848545074463,0.1969764083623886,-0.36795660853385925,-0.4256178140640259,0.2623853385448456,-0.09788340330123901,-0.15537826879881322,0.12508450075984,0.15564885549247265,0.1533667892217636,0.2556503415107727,-0.22230280563235283,-0.19806142896413803,-0.1329910308122635,-0.08352962136268616,0.053432892076671124,0.03018389642238617,-0.09471074771136045,0.02632642537355423,-0.08032138645648956,-0.15537826879881322,0.12508450075984,0.15564885549247265,0.0,0.2556503415107727,-0.22230280563235283,-0.19806142896413803,-0.1329910308122635,-0.08352962136268616,0.053432892076671124,0.03018389642238617,-0.09471074771136045,0.0,-0.08032138645648956,-0.11331004753181946,0.09720802164369324,0.006841963375513516,-0.01687378866674205,0.1012427320004523,-0.24236896448593148,-0.2285631373949606,-0.07742853248007675,0.03140774530502917,0.07860799326365081,0.05748814577604125,0.09834521273444609,-0.027236681100458467,0.08263043177410652
15.830901025000003,0.0,0.0,-0.29343348049154666,0.08944812416470939,-1.1017390903214206,-0.09389466166504501,-0.031638418604526035,-0.9950792948197704,1.0,0.0,-0.3835888465921603,0.07671776931843206,0.5370243852290244,-0.07671776931843206,0.7671776931843206,0.15343553863686413,0.15343553863686413,-0.2301533079552962,-0.4603066159105924,-0.0,-0.15343553863686413,-0.15343553863686413,0.07671776931843206,0.0,-0.6273607611656189,0.004402317106723785,0.6494536399841309,0.7374574542045593,1.160821795463562,-0.07952983677387238,-0.18851512670516968,-0.49417486786842346,-0.31263473629951477,0.17192187905311584,-0.33813703060150146,-0.43361639976501465,0.21187742054462433,-0.03567513823509216,-0.15439672931097448,0.12327362783253193,0.17074098996818066,0.14509445428848267,0.2343549132347107,-0.22775116935372353,-0.18902404606342316,-0.12354371696710587,-0.07815868407487869,0.04716925974935293,0.037638790905475616,-0.09671039413660765,0.013699445873498917,-0.06476932018995285,-0.15439672931097448,0.12327362783253193,0.17074098996818066,0.0,0.2343549132347107,-0.22775116935372353,-0.18902404606342316,-0.12354371696710587,-0.07815868407487869,0.04716925974935293,0.037638790905475616,-0.09671039413660765,0.0,-0.06476932018995285,-0.11944597068336178,0.09720802164369324,0.0175798288907128,-0.018407769454627854,0.11811652066719436,-0.23930100291015988,-0.22549517581918943,-0.08356445563161907,0.020669879789829884,0.07860799326365081,0.052886203412384286,0.09527725115867493,-0.024168719524687306,0.07802848941044956
15.850735966999991,0.0,0.0,-0.41015237421866746,0.18544123302439752,-1.0941032748439454,-0.09178609619379335,-0.02855567437140238,-0.9953692209460256,1.0,0.0,-0.30687107727372825,-0.0,0.5370243852290244,-0.07671776931843206,0.7671776931843206,0.07671776931843206,0.2301533079552962,-0.30687107727372825,-0.5370243852290244,0.07671776931843206,-0.2301533079552962,-0.15343553863686413,0.30687107727372825,-0.30687107727372825,-0.5503053069114685,-0.0063063353300094604,0.6738314628601074,0.7068701982498169,0.9899651408195496,-0.028619470074772835,-0.1279323846101761,-0.4430772662162781,-0.2688804566860199,0.23198120296001434,-0.2793479263782501,-0.367715060710907,0.17844153940677643,0.004759088158607483,-0.13513286574743688,0.12059646472334862,0.1768354456871748,0.13744764029979706,0.19164074957370758,-0.21502357767894864,-0.17387836053967476,-0.11076931655406952,-0.06722011417150497,0.06218409072607756,0.05233606696128845,-0.08023505937308073,0.0053404755890369415,-0.05466076359152794,-0.13513286574743688,0.12059646472334862,0.1768354456871748,0.0,0.19164074957370758,-0.21502357767894864,-0.17387836053967476,-0.11076931655406952,-0.06722011417150497,0.06218409072607756,0.05233606696128845,-0.08023505937308073,0.0,-0.05466076359152794,-0.12558189383490453,0.09720802164369324,0.02831769440591253,-0.018407769454627854,0.1334563285460506,-0.23930100291015988,-0.22089323345553247,-0.08816639799527604,0.011465995062515957,0.08014197405153661,0.04828426104872732,0.08300540485558984,-0.01803279637314454,0.07035858547102143
15.87094872099999,0.0,0.0,-0.5094179754258449,0.10690141668465268,-0.9577494270318884,-0.08776437792079836,-0.01530774033502297,-0.9960236377988279,1.0,0.0,-0.30687107727372825,-0.0,0.5370243852290244,-0.0,0.8438954625027527,-0.0,0.15343553863686413,-0.15343553863686413,-0.5370243852290244,-0.3835888465921603,-0.15343553863686413,-0.6904599238658886,0.2301533079552962,-0.3835888465921603,-0.5215927958488464,-0.014992091804742813,0.706445574760437,0.6702039241790771,0.8963848948478699,-0.0032264813780784607,-0.07790890336036682,-0.4538724720478058,-0.24889200925827026,0.2856752276420593,-0.29539167881011963,-0.3177378177642822,0.19152292609214783,0.040057577192783356,-0.12795473798178136,0.11842502560466528,0.1849889736622572,0.12828107178211212,0.16824568808078766,-0.20867533050477505,-0.16137249022722244,-0.11346811801195145,-0.062223002314567566,0.0756075968965888,0.048325128853321075,-0.06774074863642454,0.008610822260379791,-0.04583614133298397,-0.12795473798178136,0.11842502560466528,0.1849889736622572,0.0,0.16824568808078766,-0.20867533050477505,-0.16137249022722244,-0.11346811801195145,-0.062223002314567566,0.0756075968965888,0.048325128853321075,-0.06774074863642454,0.0,-0.04583614133298397,-0.1301838361985615,0.09720802164369324,0.039055559921111815,-0.018407769454627854,0.1487961364249073,-0.23776702212227452,-0.2162912910918755,-0.092768340358933,0.000728129547316228,0.07247207011210849,0.04521629947295616,0.06766559697673315,-0.014964834797373379,0.0596207199558217
15.89091504999999,0.0,0.0,-0.619591884457987,-0.10144726277217041,-0.6664976081053346,-0.08878267485937444,-0.010204905156249935,-0.9959987432499936,1.0,0.0,-0.07671776931843206,-0.0,0.6137421545474565,-0.0,0.6904599238658886,0.15343553863686413,0.30687107727372825,-0.15343553863686413,-0.4603066159105924,-0.07671776931843206,-0.2301533079552962,-0.8438954625027527,0.15343553863686413,-0.6904599238658886,-0.5520301461219788,-0.02521604299545288,0.8404865264892578,0.6737406253814697,0.8730153441429138,-0.03753546625375748,-0.057655297219753265,-0.4483761191368103,-0.2338796854019165,0.33878520131111145,-0.3411649167537689,-0.3599807918071747,0.2318629026412964,0.12582018971443176,-0.13556407555006444,0.11586903780698776,0.2184992115944624,0.12916524708271027,0.16240330040454865,-0.2172525767236948,-0.15630908869206905,-0.11209402978420258,-0.058469921350479126,0.08888509031385183,0.03688181936740875,-0.07830149214714766,0.01869581639766693,-0.02439548820257187,-0.13556407555006444,0.11586903780698776,0.2184992115944624,0.0,0.16240330040454865,-0.2172525767236948,-0.15630908869206905,-0.11209402978420258,-0.058469921350479126,0.08888509031385183,0.03688181936740875,-0.07830149214714766,0.0,-0.02439548820257187,-0.1301838361985615,0.09720802164369324,0.0513274062241969,-0.018407769454627854,0.16413594430376355,-0.23623304133438872,-0.21168934872821854,-0.09583630193470416,-0.008475755179997255,0.07093808932422269,0.0406143571092992,0.04925782752210574,-0.011896873221601774,0.044280912076965454
15.911218507000001,0.0,0.0,-0.693768377667746,-0.04145156973486533,-0.45487643630102215,-0.08979736762851948,0.007142972424995868,-0.9959344409708524,1.0,0.0,0.0,-0.0,0.7671776931843206,-0.0,0.6904599238658886,0.07671776931843206,0.2301533079552962,0.0,-0.30687107727372825,-0.0,-0.15343553863686413,-0.9206132318211848,0.07671776931843206,-0.7671776931843206,-0.5874496102333069,-0.0935160368680954,0.9005514979362488,0.6168690919876099,0.7800413370132446,-0.06555827707052231,-0.03568547964096069,-0.40342575311660767,-0.2078426033258438,0.3418617844581604,-0.3724146783351898,-0.3579115569591522,0.25730806589126587,0.2327699065208435,-0.14441894157789648,0.09879403933882713,0.23351545445621014,0.1149473637342453,0.13915979862213135,-0.224258279427886,-0.1508166342973709,-0.10085643827915192,-0.05196065083146095,0.08965423610061407,0.029069378972053528,-0.07778418343514204,0.025057107210159302,0.002341940999031067,-0.14441894157789648,0.09879403933882713,0.23351545445621014,0.0,0.13915979862213135,-0.224258279427886,-0.1508166342973709,-0.10085643827915192,-0.05196065083146095,0.08965423610061407,0.029069378972053528,-0.07778418343514204,0.0,0.002341940999031067,-0.1301838361985615,0.09720802164369324,0.0666672141030536,-0.018407769454627854,0.17640779060684864,-0.23316507975861755,-0.20555342557667577,-0.09583630193470416,-0.016145659119425823,0.07093808932422269,0.03908037632141384,0.030850058067477884,-0.011896873221601774,0.027407123410223402
15.93110500399996,0.0,0.0,-0.8268497331323136,0.17998707911191522,-0.23125612588924865,-0.08572285485777363,0.02449224424507818,-0.9960179326331794,1.0,1.0,0.0,-0.0,0.8438954625027527,-0.0,0.6137421545474565,0.15343553863686413,0.3835888465921603,0.0,-0.30687107727372825,0.2301533079552962,0.0,-0.9206132318211848,0.0,-0.7671776931843206,-0.5843008160591125,-0.15004271268844604,0.8323103785514832,0.5399844646453857,0.6176057457923889,-0.05016206204891205,-0.007290095090866089,-0.3561694920063019,-0.18269044160842896,0.3556792140007019,-0.363837867975235,-0.29291021823883057,0.2663635015487671,0.35234683752059937,-0.1436317430343479,0.08466237038373947,0.21645517461001873,0.09572620689868927,0.09855090081691742,-0.22040922567248344,-0.14371778815984726,-0.08904237300157547,-0.04567261040210724,0.09310859348624945,0.031213581562042236,-0.061533848755061626,0.027320966124534607,0.03223617374897003,-0.1436317430343479,0.08466237038373947,0.21645517461001873,0.0,0.09855090081691742,-0.22040922567248344,-0.14371778815984726,-0.08904237300157547,-0.04567261040210724,0.09310859348624945,0.031213581562042236,-0.061533848755061626,0.0,0.03223617374897003,-0.1301838361985615,0.09720802164369324,0.08354100276979565,-0.018407769454627854,0.19021361769781953,-0.23163109897073175,-0.19941750242513345,-0.09583630193470416,-0.022281582270968145,0.07554003168787965,0.03908037632141384,0.010908307824964672,-0.007294930857945255,0.018203238682909476
15.951365221000003,0.0,0.0,-1.0079276430267252,0.30870511144649704,0.04799655442984406,-0.08265766587703281,0.03469581036813723,-0.9959738505677039,1.0,1.0,0.0,-0.0,0.9973310011396168,-0.0,0.5370243852290244,0.07671776931843206,0.3835888465921603,0.0,-0.3835888465921603,0.3835888465921603,0.07671776931843206,-0.8438954625027527,0.3835888465921603,-0.3835888465921603,-0.5734118819236755,-0.15188023447990417,0.6171911954879761,0.4628601670265198,0.48336929082870483,0.016537845134735107,-0.024625219404697418,-0.3318301737308502,-0.1817747801542282,0.3759019672870636,-0.34242019057273865,-0.18570393323898315,0.28525519371032715,0.48523616790771484,-0.14090950950048864,0.08420298993587494,0.16267537884414196,0.07644513249397278,0.0649917870759964,-0.20373424887657166,-0.1480515692383051,-0.08295754343271255,-0.04544369503855705,0.09816428180783987,0.03656800091266632,-0.03473227750509977,0.03204388916492462,0.0654585063457489,-0.14090950950048864,0.08420298993587494,0.16267537884414196,0.0,0.0649917870759964,-0.20373424887657166,-0.1480515692383051,-0.08295754343271255,-0.04544369503855705,0.09816428180783987,0.03656800091266632,-0.03473227750509977,0.0,0.0654585063457489,-0.1301838361985615,0.09720802164369324,0.10501673380019422,-0.01687378866674205,0.2009514832130188,-0.2270291566070748,-0.19174759848570533,-0.09583630193470416,-0.02995148621039627,0.08320993562730777,0.0406143571092992,-0.0028975192660062182,-0.002692988494288291,0.008999353955595549
15.972552190999977,0.0,0.0,-1.150826475533761,0.3119776037939864,0.2279836335417593,-0.07347328950152202,0.068370977730583,-0.9949507953331107,1.0,1.0,-0.07671776931843206,-0.0,0.9973310011396168,0.07671776931843206,0.4603066159105924,0.30687107727372825,0.3835888465921603,0.0,-0.5370243852290244,-0.0,0.0,-0.6904599238658886,0.15343553863686413,-0.5370243852290244,-0.6032694578170776,-0.11085078120231628,0.44650089740753174,0.4352823495864868,0.471741646528244,0.057837873697280884,-0.0741359293460846,-0.2758784294128418,-0.189445361495018,0.3793223202228546,-0.23745770752429962,-0.12310077250003815,0.2890564203262329,0.5278934240341187,-0.14837390347383916,0.09446035325527191,0.12000280432403088,0.06955067813396454,0.062084876000881195,-0.1934092417359352,-0.16042924672365189,-0.06896960735321045,-0.0473613403737545,0.09901937004178762,0.06280862167477608,-0.01908148732036352,0.03299419581890106,0.07612282037734985,-0.14837390347383916,0.09446035325527191,0.12000280432403088,0.0,0.062084876000881195,-0.1934092417359352,-0.16042924672365189,-0.06896960735321045,-0.0473613403737545,0.09901937004178762,0.06280862167477608,-0.01908148732036352,0.0,0.07612282037734985,-0.13478577856221846,0.09874200243157905,0.12495848404270787,-0.01687378866674205,0.20862138715244738,-0.22242721424341783,-0.18407769454627676,-0.09583630193470416,-0.040689351725596,0.08320993562730777,0.03908037632141384,-0.012101403993320145,0.0003749730814833138,-0.000204530771717934
15.99155267399999,0.0,0.0,-1.3231777391682011,0.031634092692397225,0.22362031041177347,-0.07348082698748834,0.0806247962779386,-0.9940322984140785,1.0,1.0,-0.2301533079552962,0.07671776931843206,0.8438954625027527,-0.0,0.2301533079552962,0.15343553863686413,0.4603066159105924,-0.07671776931843206,-0.15343553863686413,-0.0,-0.15343553863686413,-0.4603066159105924,0.07671776931843206,-0.4603066159105924,-0.6340140104293823,-0.08782495558261871,0.4620676040649414,0.46172237396240234,0.5392800569534302,0.07468333095312119,-0.11587508767843246,-0.2485712170600891,-0.17732617259025574,0.42853301763534546,-0.16805675625801086,-0.1744849681854248,0.3075178861618042,0.5413864850997925,-0.15606004162691534,0.1002168096601963,0.1238944809883833,0.07616068422794342,0.07896947860717773,-0.18919787742197514,-0.17086403630673885,-0.06214280426502228,-0.044331543147563934,0.11132204439491034,0.08015885949134827,-0.031927536241710186,0.037609562277793884,0.07949608564376831,-0.15606004162691534,0.1002168096601963,0.1238944809883833,0.0,0.07896947860717773,-0.18919787742197514,-0.17086403630673885,-0.06214280426502228,-0.044331543147563934,0.11132204439491034,0.08015885949134827,-0.031927536241710186,0.0,0.07949608564376831,-0.13785374013798962,0.10027598321946485,0.14183227270944992,-0.01687378866674205,0.21322332951610434,-0.21935925266764666,-0.17487380981896328,-0.09737028272258996,-0.04375731330136716,0.08320993562730777,0.03754639553352804,-0.01977130793274827,0.0034429346572544747,-0.0063404539232607
16.011723594999978,0.0,0.0,-0.8170322560898455,-0.2694352032766246,0.2879793265790644,-0.07860474689056611,0.10616745034569969,-0.9912364835160999,1.0,1.0,0.0,0.07671776931843206,0.7671776931843206,-0.0,0.07671776931843206,0.15343553863686413,0.30687107727372825,-0.2301533079552962,-0.07671776931843206,0.07671776931843206,0.0,-0.3835888465921603,0.2301533079552962,-0.2301533079552962,-0.6678584814071655,-0.1540805548429489,0.768164336681366,0.4398663640022278,0.527066707611084,-0.06217609718441963,-0.11342252045869827,-0.21316270530223846,-0.16991275548934937,0.45970603823661804,-0.33826106786727905,-0.24726060032844543,0.31908756494522095,0.5211360454559326,-0.16452115937136114,0.08365290984511375,0.20041866414248943,0.07069668173789978,0.07591614127159119,-0.22341273445636034,-0.1702508945018053,-0.053290676325559616,-0.04247818887233734,0.11911529954522848,0.03760778158903122,-0.050121444277465343,0.04050198197364807,0.07443347573280334,-0.16452115937136114,0.08365290984511375,0.20041866414248943,0.0,0.07591614127159119,-0.22341273445636034,-0.1702508945018053,-0.053290676325559616,-0.04247818887233734,0.11911529954522848,0.03760778158903122,-0.050121444277465343,0.0,0.07443347573280334,-0.13325179777433266,0.1018099640073502,0.15563809980042037,-0.01687378866674205,0.2147573103039897,-0.2147573103039897,-0.1687378866674205,-0.10197222508624693,-0.04529129408925296,0.08474391641519358,0.03754639553352804,-0.024373250296405233,0.008044877020911438,-0.00940841549903186
16.03154624000001,0.0,0.0,-0.3687008044838021,-0.26070855701665296,1.2948161388232933,-0.08063281711850538,0.1153355485365963,-0.9900485139867117,1.0,1.0,0.15343553863686413,0.07671776931843206,0.5370243852290244,-0.0,-0.0,0.30687107727372825,0.2301533079552962,0.0,0.0,0.2301533079552962,0.0,-0.15343553863686413,0.15343553863686413,-0.07671776931843206,-0.6764596104621887,-0.25216084718704224,0.9892822504043579,0.2738366425037384,0.23098817467689514,-0.10837055742740631,-0.03528689593076706,-0.09247462451457977,-0.022487415000796318,0.3736225366592407,-0.2670653760433197,-0.1815110743045807,0.31142452359199524,0.5852651596069336,-0.16667144163511693,0.059132836759090424,0.2556981425732374,0.029189251363277435,0.0018965080380439758,-0.234961349517107,-0.1507169883698225,-0.023118656128644943,-0.0056218537501990795,0.09759442415088415,0.05540670454502106,-0.03368406277149916,0.038586221635341644,0.09046575427055359,-0.16667144163511693,0.059132836759090424,0.2556981425732374,0.0,0.0018965080380439758,-0.234961349517107,-0.1507169883698225,-0.023118656128644943,-0.0056218537501990795,0.09759442415088415,0.05540670454502106,-0.03368406277149916,0.0,0.09046575427055359,-0.13325179777433266,0.10334394479523601,0.1679099461035059,-0.01687378866674205,0.2147573103039897,-0.20708740636456158,-0.16260196351587775,-0.10197222508624693,-0.04529129408925296,0.08934585877885054,0.03754639553352804,-0.025907231084291035,0.009578857808796797,-0.00940841549903186
16.051729791000014,0.0,0.0,-0.37306412761378793,-0.09817477042468103,1.3777192782930239,-0.07957079517903874,0.12037633116828937,-0.989534247739328,1.0,1.0,-0.07671776931843206,0.07671776931843206,0.6137421545474565,0.07671776931843206,-0.0,0.30687107727372825,0.30687107727372825,0.15343553863686413,0.0,0.2301533079552962,0.0,-0.07671776931843206,0.15343553863686413,0.0,-0.6096839904785156,-0.2225254774093628,0.868313729763031,0.20377576351165771,-0.04068819433450699,-0.032010767608881,0.016823604702949524,-0.08400799334049225,0.07299548387527466,0.3130175769329071,-0.15265093743801117,-0.039324622601270676,0.2913369834423065,0.5906797647476196,-0.14997753663919866,0.06654167920351028,0.2254560124129057,0.011674031615257263,-0.06602258421480656,-0.21587140206247568,-0.13768936321139336,-0.021001998335123062,0.018248870968818665,0.08244318421930075,0.08401031419634819,0.0018625501543283463,0.033564336597919464,0.0918194055557251,-0.14997753663919866,0.06654167920351028,0.2254560124129057,0.0,-0.06602258421480656,-0.21587140206247568,-0.13768936321139336,-0.021001998335123062,0.018248870968818665,0.08244318421930075,0.08401031419634819,0.0018625501543283463,0.0,0.0918194055557251,-0.13938772092587542,0.10334394479523601,0.1786478116187052,-0.015339807878856249,0.2147573103039897,-0.20401944478879042,-0.15800002115222123,-0.09890426351047577,-0.04529129408925296,0.09394780114250706,0.03754639553352804,-0.025907231084291035,0.012646819384568402,-0.007874434711146502
16.071622564999984,0.0,0.0,-0.20507618710933373,0.08290313946973066,1.0755591515415055,-0.07345462794771389,0.13160620840632073,-0.988576867796316,1.0,1.0,-0.30687107727372825,-0.0,0.4603066159105924,-0.0,-0.2301533079552962,0.07671776931843206,0.15343553863686413,0.30687107727372825,-0.07671776931843206,0.15343553863686413,0.0,0.0,0.07671776931843206,0.07671776931843206,-0.5498208403587341,-0.1905362457036972,0.8443735837936401,0.19588175415992737,-0.16434302926063538,0.028079278767108917,0.03920756280422211,-0.08954417705535889,0.08689305186271667,0.29053816199302673,-0.10678301751613617,0.0017123408615589142,0.25766074657440186,0.530070960521698,-0.1350117491092533,0.07453898712992668,0.21947097592055798,0.009700529277324677,-0.09693629294633865,-0.2008488904684782,-0.1320933736860752,-0.02238604426383972,0.02172326296567917,0.07682333048433065,0.09547729417681694,0.012121791020035744,0.0251452773809433,0.07666720449924469,-0.1350117491092533,0.07453898712992668,0.21947097592055798,0.0,-0.09693629294633865,-0.2008488904684782,-0.1320933736860752,-0.02238604426383972,0.02172326296567917,0.07682333048433065,0.09547729417681694,0.012121791020035744,0.0,0.07666720449924469,-0.14552364407741775,0.10027598321946485,0.18938567713390447,-0.015339807878856249,0.20862138715244738,-0.2024854640009046,-0.15493205957644962,-0.092768340358933,-0.04682527487713832,0.09701576271827866,0.03754639553352804,-0.025907231084291035,0.01418080017245376,-0.0063404539232607
16.091849781999997,0.0,0.0,-0.667588438887831,0.19416787928436915,0.4756022211684548,-0.0714379071670193,0.1377731066792515,-0.9878842019667811,1.0,1.0,-0.2301533079552962,-0.2301533079552962,0.5370243852290244,0.07671776931843206,-0.3835888465921603,0.15343553863686413,0.07671776931843206,0.3835888465921603,0.0,0.07671776931843206,0.0,0.0,0.15343553863686413,0.07671776931843206,-0.5312476754188538,-0.13050416111946106,0.4884014129638672,0.2654877305030823,0.009413562715053558,0.1309519112110138,-0.027230121195316315,-0.14084066450595856,-0.017160829156637192,0.3077983260154724,-0.09201227128505707,-0.06294597685337067,0.2548934817314148,0.5627461671829224,-0.1303684578742832,0.08954700827598572,0.13047793321311474,0.027102023363113403,-0.05349714495241642,-0.17513073235750198,-0.14870279468595982,-0.03521016612648964,-0.004290207289159298,0.08113837148994207,0.09916998073458672,-0.0040427884086966515,0.024453461170196533,0.08483600616455078,-0.1303684578742832,0.08954700827598572,0.13047793321311474,0.0,-0.05349714495241642,-0.17513073235750198,-0.14870279468595982,-0.03521016612648964,-0.004290207289159298,0.08113837148994207,0.09916998073458672,-0.0040427884086966515,0.0,0.08483600616455078,-0.1485916056531889,0.09720802164369324,0.1985895618612184,-0.01380582709097089,0.2009514832130188,-0.19941750242513345,-0.15339807878856426,-0.08509843641950487,-0.04682527487713832,0.09854974350616402,0.03754639553352804,-0.024373250296405233,0.018782742536110723,-0.0063404539232607
16.111741703999996,0.0,0.0,-0.3043417883165112,0.19198621771937624,0.27598018797160334,-0.06428658447652486,0.1489816084694068,-0.9867480506158657,1.0,1.0,-0.15343553863686413,-0.07671776931843206,0.3835888465921603,-0.0,-0.6904599238658886,0.15343553863686413,0.07671776931843206,0.30687107727372825,0.0,-0.15343553863686413,0.07671776931843206,0.07671776931843206,0.15343553863686413,0.0,-0.4935217499732971,-0.1696224957704544,0.5938319563865662,0.235501229763031,-0.027164511382579803,0.1362498700618744,-0.029339119791984558,-0.07536394149065018,-0.05896266549825668,0.315233051776886,-0.15115198493003845,-0.06797477602958679,0.2500629127025604,0.49483707547187805,-0.12093697651289403,0.07976742461323738,0.15683556906878948,0.019605398178100586,-0.06264166347682476,-0.17380624264478683,-0.14923004433512688,-0.018840985372662544,-0.01474066637456417,0.08299705293029547,0.08438505232334137,-0.005299988202750683,0.02324581891298294,0.0678587332367897,-0.12093697651289403,0.07976742461323738,0.15683556906878948,0.0,-0.06264166347682476,-0.17380624264478683,-0.14923004433512688,-0.018840985372662544,-0.01474066637456417,0.08299705293029547,0.08438505232334137,-0.005299988202750683,0.0,0.0678587332367897,-0.14705762486530355,0.09260607928003672,0.20625946580064697,-0.01380582709097089,0.18561167533416256,-0.1932815792735907,-0.15186409800067846,-0.07896251326796211,-0.04682527487713832,0.09548178193039286,0.03908037632141384,-0.02283926950851943,0.020316723323996526,-0.003272492347489539
16.13186257000001,0.0,0.0,-0.36106498900632694,0.19416787928436915,0.3196134192714616,-0.05920759807409828,0.1551647397803955,-0.9861127541306715,1.0,1.0,0.15343553863686413,-0.2301533079552962,0.2301533079552962,-0.0,-0.9206132318211848,0.3835888465921603,-0.0,0.3835888465921603,0.0,-0.0,0.15343553863686413,0.07671776931843206,0.15343553863686413,0.2301533079552962,-0.5029885172843933,-0.10562090575695038,0.4873097538948059,0.21961051225662231,-0.006360799074172974,0.25202322006225586,-0.027044281363487244,-0.0455779954791069,-0.08474168181419373,0.29620295763015747,-0.11320936679840088,-0.05928118899464607,0.25843313336372375,0.4725872278213501,-0.12330366834066808,0.09576782211661339,0.13020501844584942,0.015632718801498413,-0.05744073539972305,-0.14486290514469147,-0.14865633472800255,-0.011394498869776726,-0.02118542045354843,0.07823952939361334,0.09387070685625076,-0.003126591444015503,0.025338374078273773,0.062296271324157715,-0.12330366834066808,0.09576782211661339,0.13020501844584942,0.0,-0.05744073539972305,-0.14486290514469147,-0.14865633472800255,-0.011394498869776726,-0.02118542045354843,0.07823952939361334,0.09387070685625076,-0.003126591444015503,0.0,0.062296271324157715,-0.14245568250164659,0.08953811770426512,0.2108614081643035,-0.01380582709097089,0.16566992509164935,-0.1825437137583914,-0.15186409800067846,-0.07129260932853398,-0.04682527487713832,0.09548178193039286,0.04521629947295616,-0.021305288720634072,0.02185070411188233,0.00746537316771019
16.151793658999964,0.0,0.0,-0.1908953869368798,0.08726646259971647,0.23343778745424157,-0.05817171547662557,0.1571656874280761,-0.9858574938670228,1.0,1.0,0.15343553863686413,-0.2301533079552962,0.07671776931843206,-0.0,-1.150766539776481,0.4603066159105924,-0.0,0.4603066159105924,0.0,-0.15343553863686413,0.30687107727372825,0.15343553863686413,0.0,0.5370243852290244,-0.4835125505924225,-0.06609880924224854,0.47482234239578247,0.18429289758205414,-0.03515230864286423,0.3136255145072937,-0.039871759712696075,-0.02121489867568016,-0.10594774782657623,0.26417607069015503,-0.10018953680992126,-0.037765976041555405,0.26536059379577637,0.42171552777290344,-0.11843467666767538,0.10564834624528885,0.12708316557109356,0.006803315132856369,-0.06463861279189587,-0.129462331533432,-0.15186320431530476,-0.00530372466892004,-0.026486936956644058,0.07023280765861273,0.09712566435337067,0.002252211794257164,0.027070239186286926,0.04957834631204605,-0.11843467666767538,0.10564834624528885,0.12708316557109356,0.0,-0.06463861279189587,-0.129462331533432,-0.15186320431530476,-0.00530372466892004,-0.026486936956644058,0.07023280765861273,0.09712566435337067,0.002252211794257164,0.0,0.04957834631204605,-0.13938772092587542,0.08647015612849396,0.2123953889521893,-0.01380582709097089,0.14419419406125034,-0.17487380981896328,-0.15186409800067846,-0.06208872460122006,-0.04529129408925296,0.0924138203546217,0.052886203412384286,-0.01670334635697711,0.02185070411188233,0.019737219470795278
16.171940580000012,0.0,0.0,-0.014180800172453928,0.05781403147231216,0.031634092692397225,-0.05714532651217282,0.1581701001676212,-0.985756882334981,1.0,1.0,0.2301533079552962,-0.07671776931843206,-0.0,-0.0,-1.227484309094913,0.3835888465921603,0.07671776931843206,0.5370243852290244,0.2301533079552962,-0.2301533079552962,0.3835888465921603,0.15343553863686413,0.0,0.6137421545474565,-0.47002315521240234,-0.045423053205013275,0.4659440517425537,0.15469348430633545,-0.06489821523427963,0.3765098452568054,-0.04220571368932724,-0.007093861699104309,-0.10436470806598663,0.23244643211364746,-0.0877973884344101,-0.031615227460861206,0.25081393122673035,0.3701457679271698,-0.11506232782267034,0.11081728525459766,0.12486359290778637,-0.0005965381860733032,-0.07207508943974972,-0.11374124884605408,-0.15244669280946255,-0.0017734654247760773,-0.02609117701649666,0.062300398014485836,0.10022370144724846,0.0037898989394307137,0.02343357354402542,0.03668590635061264,-0.11506232782267034,0.11081728525459766,0.12486359290778637,-0.0005965381860733032,-0.07207508943974972,-0.11374124884605408,-0.15244669280946255,-0.0017734654247760773,-0.02609117701649666,0.062300398014485836,0.10022370144724846,0.0037898989394307137,0.0,0.03668590635061264,-0.13631975935010382,0.08033423297695119,0.2123953889521893,-0.01380582709097089,0.11965050145508016,-0.1672039058795347,-0.1487961364249073,-0.05135085908602077,-0.04222333251348136,0.08781187799096474,0.06055610735181241,-0.012101403993320145,0.020316723323996526,0.032009065773880366
16.191923946999964,0.0,0.0,0.10035643198967395,0.07635815477475191,-0.24870941840919197,-0.056137151543838894,0.1571840243227489,-0.985972516206334,1.0,1.0,0.15343553863686413,-0.30687107727372825,-0.15343553863686413,-0.0,-1.227484309094913,0.4603066159105924,0.07671776931843206,0.3835888465921603,0.2301533079552962,-0.15343553863686413,0.3835888465921603,0.2301533079552962,-0.07671776931843206,0.6137421545474565,-0.4624026417732239,-0.027897320687770844,0.4560222029685974,0.1432635337114334,-0.07865788787603378,0.42613449692726135,-0.0578954741358757,0.0030687116086483,-0.09291160106658936,0.2151871919631958,-0.079397052526474,-0.03266860172152519,0.23303964734077454,0.3382451832294464,-0.11315719946287572,0.11519871838390827,0.1223831307142973,-0.003454025834798813,-0.07551500760018826,-0.1013350859284401,-0.15636913292109966,0.000767177902162075,-0.02322790026664734,0.05798558797687292,0.10232378542423248,0.003526555374264717,0.01899000257253647,0.028710760176181793,-0.11315719946287572,0.11519871838390827,0.1223831307142973,-0.003454025834798813,-0.07551500760018826,-0.1013350859284401,-0.15636913292109966,0.000767177902162075,-0.02322790026664734,0.05798558797687292,0.10232378542423248,0.003526555374264717,0.0,0.028710760176181793,-0.13325179777433266,0.07880025218906583,0.20779344658853233,-0.01380582709097089,0.09203884727313838,-0.15800002115222123,-0.1487961364249073,-0.042146974358706846,-0.03762139014982484,0.08474391641519358,0.06669203050335518,-0.007499461629663182,0.020316723323996526,0.044280912076965454
16.211882813999978,0.0,0.0,0.15707963267948966,0.026179938779914945,-0.48432886742842646,-0.05815905673864963,0.1520298149834876,-0.986663295899547,1.0,1.0,0.15343553863686413,-0.07671776931843206,-0.30687107727372825,-0.0,-1.304202078413345,0.4603066159105924,-0.0,0.3835888465921603,0.15343553863686413,-0.2301533079552962,0.30687107727372825,0.15343553863686413,0.0,0.6137421545474565,-0.43634042143821716,0.0034002400934696198,0.43277400732040405,0.13342614471912384,-0.08409533649682999,0.4610053300857544,-0.06824466586112976,-0.0033279992640018463,-0.0983978807926178,0.20502278208732605,-0.05882452800869942,-0.012814056128263474,0.2202519029378891,0.32340341806411743,-0.10664164437912405,0.12302310857921839,0.11657108180224895,-0.0059133730828762054,-0.0768743697553873,-0.09261737763881683,-0.15895643085241318,-0.0008319998160004616,-0.02459947019815445,0.05544448550790548,0.10746691655367613,0.008490191772580147,0.01579306647181511,0.02500031888484955,-0.10664164437912405,0.12302310857921839,0.11657108180224895,-0.0059133730828762054,-0.0768743697553873,-0.09261737763881683,-0.15895643085241318,-0.0008319998160004616,-0.02459947019815445,0.05544448550790548,0.10746691655367613,0.008490191772580147,0.0,0.02500031888484955,-0.1286498554106757,0.07880025218906583,0.20165752343699,-0.01380582709097089,0.0659611738790824,-0.1472621556370215,-0.1487961364249073,-0.03601105120716408,-0.03455342857405323,0.08014197405153661,0.07282795365489794,-0.004431500053892021,0.017248761748225365,0.05501877759216518
16.23199231000001,0.0,0.0,0.19198621771937624,-0.05235987755982989,-0.4494222823885399,-0.06016869500323531,0.1478722165333749,-0.9871745214090132,1.0,1.0,0.15343553863686413,-0.0,-0.3835888465921603,-0.0,-1.304202078413345,0.5370243852290244,-0.0,0.07671776931843206,0.15343553863686413,-0.2301533079552962,0.30687107727372825,0.15343553863686413,-0.15343553863686413,0.5370243852290244,-0.4347760081291199,0.020816652104258537,0.43204033374786377,0.1401769369840622,-0.07355178147554398,0.47589319944381714,-0.08876994252204895,-0.011526880785822868,-0.09037524461746216,0.1919962465763092,-0.04697779193520546,-0.008768461644649506,0.20197351276874542,0.2961767315864563,-0.10625054105184972,0.12737721158191562,0.11638766340911388,-0.004225675016641617,-0.0742384810000658,-0.08889541029930115,-0.16408775001764297,-0.002881720196455717,-0.02259381115436554,0.05218785163015127,0.11042860057204962,0.009501590393483639,0.01122346892952919,0.018193647265434265,-0.10625054105184972,0.12737721158191562,0.11638766340911388,-0.004225675016641617,-0.0742384810000658,-0.08889541029930115,-0.16408775001764297,-0.002881720196455717,-0.02259381115436554,0.05218785163015127,0.11042860057204962,0.009501590393483639,0.0,0.018193647265434265,-0.1286498554106757,0.0834021945527228,0.19552160028544724,-0.01380582709097089,0.04141748127291223,-0.13805827090970757,-0.1487961364249073,-0.03447707041927872,-0.02995148621039627,0.07554003168787965,0.07742989601855446,-0.0013635384781204157,0.015714780960339562,0.061154700743707505
16.25205467699999,0.0,0.0,0.32506757318394386,-0.18216874067690814,-0.20398535632683726,-0.06223757555982192,0.14386062547434247,-0.9876389039656986,1.0,1.0,0.07671776931843206,0.2301533079552962,-0.2301533079552962,-0.0,-1.227484309094913,0.4603066159105924,-0.0,0.2301533079552962,0.2301533079552962,-0.2301533079552962,0.15343553863686413,0.07671776931843206,-0.07671776931843206,0.15343553863686413,-0.4063650071620941,0.013093516230583191,0.46887946128845215,0.13531145453453064,-0.0649874284863472,0.4851267337799072,-0.09828519821166992,-0.014982684515416622,-0.06480374932289124,0.1756577342748642,-0.050920527428388596,-0.04202292114496231,0.17767590284347534,0.2592695951461792,-0.09914779081009328,0.12544642761349678,0.12559744529426098,-0.005442045629024506,-0.07209739275276661,-0.08658702671527863,-0.16646656394004822,-0.0037456711288541555,-0.01620093733072281,0.04810322355479002,0.10944291669875383,0.0011879755184054375,0.00514906644821167,0.00896686315536499,-0.09914779081009328,0.12544642761349678,0.12559744529426098,-0.005442045629024506,-0.07209739275276661,-0.08658702671527863,-0.16646656394004822,-0.0037456711288541555,-0.01620093733072281,0.04810322355479002,0.10944291669875383,0.0011879755184054375,0.0,0.00896686315536499,-0.12404791304701875,0.08800413691637976,0.18938567713390447,-0.01380582709097089,0.01687378866674205,-0.12732040539450828,-0.1487961364249073,-0.029875128055621758,-0.025349543846739306,0.07093808932422269,0.08203183838221142,0.00017044230976494268,0.01418080017245376,0.06575664310736447
16.27223933900001,0.0,0.0,0.3959715740462135,-0.3119776037939864,-0.01090830782496456,-0.07140545241433151,0.13363020380396326,-0.9884554769926747,1.0,1.0,0.15343553863686413,0.2301533079552962,-0.5370243852290244,-0.0,-0.9973310011396168,0.5370243852290244,-0.0,0.15343553863686413,0.15343553863686413,-0.15343553863686413,0.30687107727372825,0.15343553863686413,-0.07671776931843206,0.07671776931843206,-0.3942157030105591,-0.01687026396393776,0.543003499507904,0.1290823072195053,-0.03292527794837952,0.462271511554718,-0.11561363935470581,0.018330316990613937,-0.03868648409843445,0.14877410233020782,-0.04535727947950363,-0.09442809224128723,0.16812953352928162,0.2516922950744629,-0.09611046477220953,0.11795548256486654,0.14412845484912395,-0.006999332457780838,-0.06408185511827469,-0.09230083227157593,-0.1707986742258072,0.004582579247653484,-0.009671621024608612,0.04138231556862593,0.11083372868597507,-0.011913317255675793,0.0027624741196632385,0.007072538137435913,-0.09611046477220953,0.11795548256486654,0.14412845484912395,-0.006999332457780838,-0.06408185511827469,-0.09230083227157593,-0.1707986742258072,0.004582579247653484,-0.009671621024608612,0.04138231556862593,0.11083372868597507,-0.011913317255675793,0.0,0.007072538137435913,-0.12097995147124758,0.09260607928003672,0.1786478116187052,-0.01380582709097089,-0.003067961575771161,-0.11658253987930856,-0.1487961364249073,-0.026807166479850597,-0.023815563058853947,0.06633614696056572,0.08663378074586839,0.0032384038855365477,0.012646819384568402,0.06729062389525027
16.292231834999995,0.0,0.0,0.33161255787892263,-0.3490658503988659,0.006544984694978736,-0.07447917230431068,0.13059361719112011,-0.9886344926421514,1.0,1.0,0.15343553863686413,0.15343553863686413,-0.3835888465921603,0.4603066159105924,-0.8438954625027527,0.5370243852290244,0.07671776931843206,0.07671776931843206,0.07671776931843206,-0.2301533079552962,0.15343553863686413,0.0,-0.07671776931843206,0.0,-0.397163450717926,0.021865297108888626,0.4957820177078247,0.14215019345283508,0.00031935423612594604,0.4936579465866089,-0.12162674218416214,0.013737417757511139,-0.06858143210411072,0.1553100198507309,-0.04143818840384483,-0.06231013685464859,0.17233756184577942,0.23186510801315308,-0.09684740169905126,0.12763937283307314,0.13232308439910412,-0.0037323608994483948,-0.05577069707214832,-0.08445422351360321,-0.17230194993317127,0.0034343544393777847,-0.01714535802602768,0.043016294948756695,0.11181350145488977,-0.0038838284090161324,0.003814481198787689,0.0021157413721084595,-0.09684740169905126,0.12763937283307314,0.13232308439910412,-0.0037323608994483948,-0.05577069707214832,-0.08445422351360321,-0.17230194993317127,0.0034343544393777847,-0.01714535802602768,0.043016294948756695,0.11181350145488977,-0.0038838284090161324,0.0,0.0021157413721084595,-0.11791198989547642,0.09567404085580788,0.17097790767927706,-0.004601942363656963,-0.018407769454627854,-0.10737865515199507,-0.1472621556370215,-0.025273185691964795,-0.022281582270968145,0.06326818538479456,0.08970174232164,0.0032384038855365477,0.011112838596682599,0.06729062389525027
16.312705032999986,0.0,0.0,0.32070425005395803,-0.17562375598192942,-0.032724923474893676,-0.08057441635418462,0.12137158919174645,-0.9893314413108746,1.0,1.0,0.15343553863686413,0.07671776931843206,-0.3835888465921603,0.07671776931843206,-0.5370243852290244,0.3835888465921603,-0.0,0.15343553863686413,0.07671776931843206,-0.15343553863686413,0.15343553863686413,0.0,0.0,-0.07671776931843206,-0.38449153304100037,-0.01201559230685234,0.4876047372817993,0.1288316398859024,-0.0446697399020195,0.49615156650543213,-0.08050771057605743,0.015526976436376572,-0.07454848289489746,0.1725834608078003,-0.05387948825955391,-0.06551527976989746,0.1733705997467041,0.24348241090774536,-0.09367942227981985,0.1191691504791379,0.13027876429259777,-0.007061999291181564,-0.06701797060668468,-0.0838308185338974,-0.1620221920311451,0.003881744109094143,-0.018637120723724365,0.047334655188024044,0.1087031764909625,-0.00468511413782835,0.00407274067401886,0.005020067095756531,-0.09367942227981985,0.1191691504791379,0.13027876429259777,-0.007061999291181564,-0.06701797060668468,-0.0838308185338974,-0.1620221920311451,0.003881744109094143,-0.018637120723724365,0.047334655188024044,0.1087031764909625,-0.00468511413782835,0.0,0.005020067095756531,-0.11484402831970482,0.09720802164369324,0.1648419845277343,-0.003067961575771161,-0.027611654181941336,-0.0997087512125665,-0.1472621556370215,-0.022205224116193634,-0.020747601483082787,0.05866624302113759,0.09276970389741115,0.0032384038855365477,0.011112838596682599,0.06575664310736447
16.332820620999996,0.0,0.0,0.22580197197676638,-0.15162547876700738,0.004363323129985824,-0.08365391700346876,0.11731951774876717,-0.9895646279678622,1.0,0.0,0.15343553863686413,-0.0,-0.15343553863686413,0.07671776931843206,-0.30687107727372825,0.3835888465921603,-0.0,0.2301533079552962,0.0,-0.2301533079552962,0.15343553863686413,0.0,0.0,-0.2301533079552962,-0.39983755350112915,0.018211618065834045,0.4488368630409241,0.13877001404762268,-0.04503800719976425,0.5116601586341858,-0.0709458440542221,0.034716151654720306,-0.0967385321855545,0.17753228545188904,-0.033265966922044754,-0.008194144815206528,0.18568211793899536,0.2483929991722107,-0.09751592739485204,0.1267259530723095,0.12058679573237896,-0.004577405750751495,-0.06711003743112087,-0.07995367050170898,-0.15963172540068626,0.008679037913680077,-0.024184633046388626,0.04857186134904623,0.1138565568253398,0.009645169600844383,0.007150620222091675,0.006247714161872864,-0.09751592739485204,0.1267259530723095,0.12058679573237896,-0.004577405750751495,-0.06711003743112087,-0.07995367050170898,-0.15963172540068626,0.008679037913680077,-0.024184633046388626,0.04857186134904623,0.1138565568253398,0.009645169600844383,0.0,0.006247714161872864,-0.11331004753181946,0.09720802164369324,0.16177402295196314,-0.0015339807878858025,-0.0337475773334841,-0.09357282806102418,-0.1472621556370215,-0.01760328175253667,-0.020747601483082787,0.05559828144536643,0.09430368468529651,0.0032384038855365477,0.011112838596682599,0.06268868153159331
16.353604390999976,0.0,0.0,0.20725784867432664,-0.18980455615438332,0.13308135546456762,-0.08468691171294665,0.11529663883810809,-0.9897145103802198,1.0,0.0,0.07671776931843206,0.07671776931843206,-0.0,0.07671776931843206,-0.30687107727372825,0.30687107727372825,-0.0,0.2301533079552962,0.0,-0.0,0.07671776931843206,0.0,0.0,-0.15343553863686413,-0.40766796469688416,0.01390797458589077,0.46330684423446655,0.1488332450389862,-0.03816242516040802,0.4992874264717102,-0.07202170789241791,0.05894485488533974,-0.11406329274177551,0.18570618331432343,-0.021840140223503113,0.0015828721225261688,0.19268572330474854,0.24856504797935486,-0.0994735301937908,0.12565004220232368,0.12420429103076458,-0.002061598002910614,-0.06539114192128181,-0.08304685354232788,-0.15990069136023521,0.014736213721334934,-0.028515823185443878,0.05061533581465483,0.1167130134999752,0.012089423835277557,0.008901521563529968,0.006290726363658905,-0.0994735301937908,0.12565004220232368,0.12420429103076458,-0.002061598002910614,-0.06539114192128181,-0.08304685354232788,-0.15990069136023521,0.014736213721334934,-0.028515823185443878,0.05061533581465483,0.1167130134999752,0.012089423835277557,0.0,0.006290726363658905,-0.11331004753181946,0.09874200243157905,0.16177402295196314,-0.0,-0.03988350048502687,-0.08743690490948142,-0.1472621556370215,-0.011467358600993904,-0.020747601483082787,0.05559828144536643,0.09583766547318232,0.0032384038855365477,0.011112838596682599,0.058086739167936344
16.372926725000013,0.0,0.0,0.05781403147231216,-0.07308566242726255,0.20180369476184434,-0.08977984095157257,0.11222480118946572,-0.9896187013980159,1.0,1.0,0.0,-0.0,-0.0,-0.0,-0.30687107727372825,0.30687107727372825,-0.0,0.2301533079552962,0.0,-0.0,0.0,0.0,0.0,-0.2301533079552962,-0.4246315062046051,0.019419267773628235,0.4459497928619385,0.16029898822307587,-0.047014422714710236,0.5075523853302002,-0.06202390044927597,0.07624870538711548,-0.1217767596244812,0.20255282521247864,0.002697302494198084,0.04411689192056656,0.2021668553352356,0.26216593384742737,-0.10371441557072103,0.12702786549925804,0.11986502818763256,0.0008048377931118011,-0.06760414130985737,-0.08098061382770538,-0.15740123949944973,0.01906217634677887,-0.0304441899061203,0.05482699628919363,0.1228473741794005,0.022722928784787655,0.011271804571151733,0.009690947830677032,-0.10371441557072103,0.12702786549925804,0.11986502818763256,0.0,-0.06760414130985737,-0.08098061382770538,-0.15740123949944973,0.01906217634677887,-0.0304441899061203,0.05482699628919363,0.1228473741794005,0.022722928784787655,0.0,0.009690947830677032,-0.11331004753181946,0.09874200243157905,0.16177402295196314,-0.0,-0.04448544284868339,-0.08283496254582445,-0.1472621556370215,-0.008399397025222743,-0.020747601483082787,0.05559828144536643,0.09583766547318232,0.0032384038855365477,0.011112838596682599,0.05348479680427938
16.393274942000005,0.0,0.0,0.05781403147231216,-0.07308566242726255,0.20180369476184434,-0.08977984095157257,0.11222480118946572,-0.9896187013980159,1.0,1.0,0.0,-0.0,-0.0,-0.0,-0.07671776931843206,0.2301533079552962,-0.0,0.15343553863686413,-0.07671776931843206,-0.0,0.0,0.0,0.0,-0.30687107727372825,-0.4199916422367096,0.023428989574313164,0.43764936923980713,0.16247330605983734,-0.06186496466398239,0.509009063243866,-0.06181996315717697,0.08346134424209595,-0.12585528194904327,0.201735720038414,0.008826066739857197,0.06496378779411316,0.19917355477809906,0.259365439414978,-0.10255444957874715,0.12803029594942927,0.11778992228209972,0.0013484172523021698,-0.07131677679717541,-0.08061644434928894,-0.15735025517642498,0.020865336060523987,-0.03146382048726082,0.05462271999567747,0.12437956524081528,0.027934652753174305,0.0105234794318676,0.008990824222564697,-0.10255444957874715,0.12803029594942927,0.11778992228209972,0.0,-0.07131677679717541,-0.08061644434928894,-0.15735025517642498,0.020865336060523987,-0.03146382048726082,0.05462271999567747,0.12437956524081528,0.027934652753174305,0.0,0.008990824222564697,-0.11331004753181946,0.09874200243157905,0.16177402295196314,-0.0,-0.04601942363656919,-0.07976700097005329,-0.1472621556370215,-0.00379745466156578,-0.022281582270968145,0.05559828144536643,0.09583766547318232,0.0032384038855365477,0.011112838596682599,0.047348873652736614
16.414251766000007,0.0,0.0,0.05126904677733343,-0.0272707695624114,0.1712604328519436,-0.08979007528413697,0.11121725234057875,-0.9897315116546916,1.0,1.0,0.0,-0.0,-0.0,-0.0,-0.07671776931843206,0.07671776931843206,-0.0,0.2301533079552962,-0.07671776931843206,-0.0,0.0,0.0,0.0,-0.15343553863686413,-0.4233928918838501,0.024681827053427696,0.43947499990463257,0.1630033552646637,-0.06886441260576248,0.5105920433998108,-0.05960504710674286,0.0882122814655304,-0.13346831500530243,0.20955154299736023,0.009653866291046143,0.07432007044553757,0.20156168937683105,0.25761258602142334,-0.10340476199053228,0.1283435053192079,0.11824632994830608,0.0014809295535087585,-0.07306663878262043,-0.08022069931030273,-0.15679652616381645,0.0220530703663826,-0.03336707875132561,0.05657667573541403,0.12458651512861252,0.030273723416030407,0.011120513081550598,0.008552610874176025,-0.10340476199053228,0.1283435053192079,0.11824632994830608,0.0,-0.07306663878262043,-0.08022069931030273,-0.15679652616381645,0.0220530703663826,-0.03336707875132561,0.05657667573541403,0.12458651512861252,0.030273723416030407,0.0,0.008552610874176025,-0.11331004753181946,0.09874200243157905,0.16177402295196314,-0.0,-0.04755340442445499,-0.07823302018216749,-0.1472621556370215,-0.0007294930857946191,-0.025349543846739306,0.05559828144536643,0.09737164626106812,0.0032384038855365477,0.011112838596682599,0.044280912076965454
16.433136547000004,0.0,0.0,0.1505346479845109,-0.04145156973486533,0.061086523819801536,-0.09084253124847229,0.10717377282123135,-0.9900815203485183,1.0,1.0,0.0,-0.0,-0.0,-0.0,-0.07671776931843206,0.07671776931843206,-0.0,0.15343553863686413,-0.15343553863686413,-0.0,0.15343553863686413,0.2301533079552962,0.0,-0.15343553863686413,-0.40904948115348816,0.0015349611639976501,0.47246187925338745,0.16515995562076569,-0.06236416846513748,0.48901188373565674,-0.07532685995101929,0.09451311826705933,-0.13307103514671326,0.19337812066078186,-0.016551833599805832,0.033689819276332855,0.1836373209953308,0.23787806928157806,-0.0998189093079418,0.1225567888468504,0.1264930497854948,0.002020079642534256,-0.07144157774746418,-0.08561573922634125,-0.16072697937488556,0.02362827956676483,-0.033267758786678314,0.052533320151269436,0.11803509015589952,0.02011616062372923,0.006639420986175537,0.0036189816892147064,-0.0998189093079418,0.1225567888468504,0.1264930497854948,0.0,-0.07144157774746418,-0.08561573922634125,-0.16072697937488556,0.02362827956676483,-0.033267758786678314,0.052533320151269436,0.11803509015589952,0.02011616062372923,0.0,0.0036189816892147064,-0.11331004753181946,0.09874200243157905,0.16177402295196314,-0.0,-0.04908738521234035,-0.07669903939428213,-0.1472621556370215,0.0038724492778623443,-0.02688352463462511,0.05559828144536643,0.10043960783683928,0.006306365461307709,0.011112838596682599,0.04121295050119429
16.45349996699997,0.0,0.0,0.1505346479845109,-0.04145156973486533,0.061086523819801536,-0.09084253124847229,0.10717377282123135,-0.9900815203485183,1.0,1.0,0.0,-0.0,-0.07671776931843206,-0.0,-0.07671776931843206,0.15343553863686413,-0.0,0.15343553863686413,0.0,-0.0,0.15343553863686413,0.15343553863686413,0.0,0.0,-0.4181475341320038,0.0174955353140831,0.4746888279914856,0.17462044954299927,-0.03392753005027771,0.49810779094696045,-0.07123242318630219,0.08972924947738647,-0.1442093849182129,0.19855964183807373,-0.011302784085273743,0.05158388614654541,0.1812976747751236,0.20145133137702942,-0.1020934225525707,0.12654693238437176,0.12704978697001934,0.004385203123092651,-0.06433241814374924,-0.08334176242351532,-0.15970337018370628,0.02243231236934662,-0.03605234622955322,0.0538287004455924,0.11934735253453255,0.024589677341282368,0.0060545094311237335,-0.005487702786922455,-0.1020934225525707,0.12654693238437176,0.12704978697001934,0.0,-0.06433241814374924,-0.08334176242351532,-0.15970337018370628,0.02243231236934662,-0.03605234622955322,0.0538287004455924,0.11934735253453255,0.024589677341282368,0.0,-0.005487702786922455,-0.11331004753181946,0.09874200243157905,0.16024004216407733,-0.0,-0.052155346788111956,-0.07516505860639633,-0.1472621556370215,0.005406430065748147,-0.02688352463462511,0.05559828144536643,0.10350756941261044,0.010908307824964672,0.011112838596682599,0.04121295050119429
16.47404079399996,0.0,0.0,0.11017390903214205,0.04036073895236887,0.007635815477475192,-0.09179158594274464,0.10403046406844392,-0.9903292216711672,1.0,1.0,0.0,-0.0,-0.0,-0.0,-0.15343553863686413,-0.0,-0.0,0.07671776931843206,0.07671776931843206,-0.0,0.07671776931843206,0.2301533079552962,0.0,0.0,-0.4204409718513489,0.025589030236005783,0.44629836082458496,0.1736883968114853,-0.0631169006228447,0.5276297330856323,-0.052846238017082214,0.08928754925727844,-0.1409115195274353,0.20759908854961395,-0.0020516635850071907,0.09171613305807114,0.18432486057281494,0.19807219505310059,-0.10266678198240697,0.12857030611485243,0.11995217017829418,0.004152189940214157,-0.07162976078689098,-0.07596127688884735,-0.1551068238914013,0.02232188731431961,-0.035227879881858826,0.05608856212347746,0.12166013265959918,0.0346227390691638,0.00681130588054657,-0.006332486867904663,-0.10266678198240697,0.12857030611485243,0.11995217017829418,0.0,-0.07162976078689098,-0.07596127688884735,-0.1551068238914013,0.02232188731431961,-0.035227879881858826,0.05608856212347746,0.12166013265959918,0.0346227390691638,0.0,-0.006332486867904663,-0.11331004753181946,0.09874200243157905,0.16024004216407733,-0.0,-0.053689327575997314,-0.07516505860639633,-0.1472621556370215,0.006940410853633505,-0.025349543846739306,0.05559828144536643,0.10350756941261044,0.015510250188621635,0.011112838596682599,0.04121295050119429
16.493434035000007,0.0,0.0,0.11017390903214205,0.04036073895236887,0.007635815477475192,-0.09179158594274464,0.10403046406844392,-0.9903292216711672,1.0,1.0,0.07671776931843206,-0.0,-0.0,-0.0,-0.15343553863686413,-0.0,-0.0,0.07671776931843206,0.0,-0.0,0.0,0.15343553863686413,0.0,-0.15343553863686413,-0.4119454324245453,0.02314423769712448,0.45948565006256104,0.18891292810440063,-0.05401981621980667,0.5125090479850769,-0.060811858624219894,0.08365817368030548,-0.14274176955223083,0.20728379487991333,0.004112095106393099,0.10621092468500137,0.18106254935264587,0.1769934594631195,-0.10054289712570608,0.1279591079801321,0.1232489924877882,0.007958322763442993,-0.06935548968613148,-0.0797414481639862,-0.1570982290431857,0.02091454342007637,-0.03568544238805771,0.0560097387060523,0.12320107233244926,0.03824643697589636,0.005995728075504303,-0.011602170765399933,-0.10054289712570608,0.1279591079801321,0.1232489924877882,0.0,-0.06935548968613148,-0.0797414481639862,-0.1570982290431857,0.02091454342007637,-0.03568544238805771,0.0560097387060523,0.12320107233244926,0.03824643697589636,0.0,-0.011602170765399933,-0.11177606674393366,0.09874200243157905,0.16024004216407733,-0.0,-0.05675728915176892,-0.07516505860639633,-0.1472621556370215,0.01000837242940511,-0.025349543846739306,0.05559828144536643,0.10350756941261044,0.018578211764392796,0.011112838596682599,0.03814498892542313
16.513705715000015,0.0,0.0,0.10035643198967395,0.09926560120717749,-0.07853981633974483,-0.0897778786027614,0.10304051975998751,-0.9906172741281969,1.0,1.0,0.0,-0.0,-0.0,-0.0,-0.07671776931843206,-0.0,-0.0,0.07671776931843206,0.0,-0.0,0.0,0.07671776931843206,0.0,-0.15343553863686413,-0.41145020723342896,0.02444436401128769,0.4552791714668274,0.1858680546283722,-0.07394609600305557,0.520441472530365,-0.0549342967569828,0.08672912418842316,-0.14526744186878204,0.21167238056659698,-0.0012309905141592026,0.11444713920354843,0.18185526132583618,0.18014205992221832,-0.100419090827927,0.1282841395586729,0.12219737283885479,0.007197104394435883,-0.0743370596319437,-0.07775834202766418,-0.15562883857637644,0.02168228104710579,-0.03631686046719551,0.05710688512772322,0.12186530092731118,0.04030549060553312,0.00619390606880188,-0.010815020650625229,-0.100419090827927,0.1282841395586729,0.12219737283885479,0.0,-0.0743370596319437,-0.07775834202766418,-0.15562883857637644,0.02168228104710579,-0.03631686046719551,0.05710688512772322,0.12186530092731118,0.04030549060553312,0.0,-0.010815020650625229,-0.11177606674393366,0.09874200243157905,0.16024004216407733,-0.0,-0.05982525072754008,-0.07516505860639633,-0.1472621556370215,0.01000837242940511,-0.025349543846739306,0.05559828144536643,0.10350756941261044,0.0201121925522786,0.011112838596682599,0.03507702734965153
16.53399813499999,0.0,0.0,0.1712604328519436,0.015271630954950384,-0.08290313946973066,-0.08881130456317209,0.09799868089729333,-0.991215824492415,1.0,1.0,0.0,0.07671776931843206,-0.0,-0.0,-0.15343553863686413,-0.0,-0.0,0.0,0.0,-0.0,0.0,0.0,0.0,-0.07671776931843206,-0.3944409191608429,0.005843270570039749,0.48086756467819214,0.18622608482837677,-0.06787914782762527,0.4979444742202759,-0.06786507368087769,0.07894869148731232,-0.14146532118320465,0.20000311732292175,-0.021365251392126083,0.070646733045578,0.16909301280975342,0.17744356393814087,-0.09616676880978048,0.12363386619836092,0.12859447114169598,0.007286611944437027,-0.07282032258808613,-0.08338259160518646,-0.15886153280735016,0.01973717287182808,-0.03536633029580116,0.05418956931680441,0.11683173570781946,0.029355389066040516,0.003003343939781189,-0.011489644646644592,-0.09616676880978048,0.12363386619836092,0.12859447114169598,0.0,-0.07282032258808613,-0.08338259160518646,-0.15886153280735016,0.01973717287182808,-0.03536633029580116,0.05418956931680441,0.11683173570781946,0.029355389066040516,0.0,-0.011489644646644592,-0.11177606674393366,0.10027598321946485,0.16024004216407733,-0.0,-0.06289321230331124,-0.07516505860639633,-0.1472621556370215,0.01000837242940511,-0.025349543846739306,0.05559828144536643,0.10350756941261044,0.0201121925522786,0.011112838596682599,0.03354304656176617
16.553740188999996,0.0,0.0,0.1712604328519436,0.015271630954950384,-0.08290313946973066,-0.08881130456317209,0.09799868089729333,-0.991215824492415,1.0,1.0,0.0,0.07671776931843206,-0.0,-0.0,-0.15343553863686413,-0.0,-0.0,0.0,0.0,-0.0,0.0,0.07671776931843206,0.0,-0.07671776931843206,-0.38638758659362793,-0.0030946247279644012,0.4902304410934448,0.1855822503566742,-0.0658932700753212,0.4928886890411377,-0.07175072282552719,0.0791667103767395,-0.13342416286468506,0.19509051740169525,-0.034162506461143494,0.04738708585500717,0.1632244884967804,0.18143229186534882,-0.09415343566797674,0.12139939237385988,0.13093519024550915,0.007125653326511383,-0.07232385315001011,-0.08464653789997101,-0.15983294509351254,0.019791677594184875,-0.033356040716171265,0.052961419336497784,0.11363242194056511,0.023540477268397808,0.0015362128615379333,-0.010492462664842606,-0.09415343566797674,0.12139939237385988,0.13093519024550915,0.0,-0.07232385315001011,-0.08464653789997101,-0.15983294509351254,0.019791677594184875,-0.033356040716171265,0.052961419336497784,0.11363242194056511,0.023540477268397808,0.0,-0.010492462664842606,-0.11177606674393366,0.1018099640073502,0.16024004216407733,-0.0,-0.06442719309119704,-0.07516505860639633,-0.1472621556370215,0.01000837242940511,-0.025349543846739306,0.05559828144536643,0.10350756941261044,0.021646173340163957,0.011112838596682599,0.030475084985994563
16.573769462999962,0.0,0.0,0.17780541754692233,0.044724062082354694,-0.08726646259971647,-0.08776876556838886,0.09083046669286754,-0.9919911643310928,1.0,1.0,0.0,-0.0,-0.0,-0.0,-0.07671776931843206,-0.0,-0.0,0.07671776931843206,0.0,-0.0,0.0,0.07671776931843206,0.0,-0.07671776931843206,-0.3781336843967438,-0.004650484770536423,0.48481327295303345,0.18230055272579193,-0.085026316344738,0.4997138977050781,-0.06730889528989792,0.08003498613834381,-0.12598009407520294,0.18889379501342773,-0.035661425441503525,0.05263413488864899,0.15693725645542145,0.17964550852775574,-0.0920899601187557,0.12101042736321688,0.1295808982104063,0.006305228918790817,-0.07710711471736431,-0.0829402357339859,-0.15872248820960522,0.020008746534585953,-0.031495023518800735,0.051412238739430904,0.1132576921954751,0.024852239526808262,-3.559514880180359e-05,-0.010939158499240875,-0.0920899601187557,0.12101042736321688,0.1295808982104063,0.0,-0.07710711471736431,-0.0829402357339859,-0.15872248820960522,0.020008746534585953,-0.031495023518800735,0.051412238739430904,0.1132576921954751,0.024852239526808262,-3.559514880180359e-05,-0.010939158499240875,-0.11177606674393366,0.1018099640073502,0.16024004216407733,-0.0,-0.0674951546669682,-0.07516505860639633,-0.1472621556370215,0.011542353217290469,-0.025349543846739306,0.05559828144536643,0.10350756941261044,0.02318015412804976,0.011112838596682599,0.030475084985994563
16.594662825,0.0,0.0,0.17780541754692233,0.044724062082354694,-0.08726646259971647,-0.08776876556838886,0.09083046669286754,-0.9919911643310928,1.0,1.0,0.0,-0.0,-0.0,-0.0,-0.07671776931843206,-0.0,-0.0,0.0,0.0,-0.0,0.0,0.2301533079552962,0.0,-0.07671776931843206,-0.3804185688495636,-0.003506619483232498,0.4804200530052185,0.18435786664485931,-0.0930899903178215,0.5010741353034973,-0.06258159130811691,0.08211773633956909,-0.1275632679462433,0.18297187983989716,-0.034443631768226624,0.07084009796380997,0.15435580909252167,0.17442142963409424,-0.09266118123196065,0.12129639368504286,0.12848259322345257,0.006819557398557663,-0.07912303321063519,-0.0826001763343811,-0.15754066221415997,0.020529434084892273,-0.03189081698656082,0.04993175994604826,0.11356214061379433,0.029403730295598507,-0.0006809569895267487,-0.01224517822265625,-0.09266118123196065,0.12129639368504286,0.12848259322345257,0.0,-0.07912303321063519,-0.0826001763343811,-0.15754066221415997,0.020529434084892273,-0.03189081698656082,0.04993175994604826,0.11356214061379433,0.029403730295598507,-0.0006809569895267487,-0.01224517822265625,-0.11177606674393366,0.1018099640073502,0.16024004216407733,-0.0,-0.06902913545485401,-0.07516505860639633,-0.1472621556370215,0.011542353217290469,-0.025349543846739306,0.05559828144536643,0.10350756941261044,0.027782096491706723,0.011112838596682599,0.028941104198109205
16.614280749999978,0.0,0.0,0.19634954084936207,0.05890486225480862,-0.08072147790473774,-0.08669953912381488,0.08669953912381488,-0.9924547243231987,1.0,1.0,0.07671776931843206,-0.0,-0.0,-0.0,-0.07671776931843206,-0.0,-0.0,0.0,0.0,-0.0,0.0,0.07671776931843206,0.0,0.0,-0.3753191828727722,0.001156579703092575,0.47454363107681274,0.18383733928203583,-0.10160266607999802,0.5059186220169067,-0.05621574819087982,0.07294782996177673,-0.12602585554122925,0.17819856107234955,-0.03373795747756958,0.08419827371835709,0.14821776747703552,0.15737853944301605,-0.09138633473776281,0.12246219348162413,0.12701348774135113,0.006689425557851791,-0.08125120215117931,-0.08138905465602875,-0.1559492014348507,0.018236957490444183,-0.03150646388530731,0.04873843025416136,0.11373855918645859,0.03274327423423529,-0.002215467393398285,-0.016505900770425797,-0.09138633473776281,0.12246219348162413,0.12701348774135113,0.0,-0.08125120215117931,-0.08138905465602875,-0.1559492014348507,0.018236957490444183,-0.03150646388530731,0.04873843025416136,0.11373855918645859,0.03274327423423529,-0.002215467393398285,-0.016505900770425797,-0.11177606674393366,0.1018099640073502,0.16024004216407733,-0.0,-0.06902913545485401,-0.07516505860639633,-0.1472621556370215,0.013076334005176271,-0.025349543846739306,0.05559828144536643,0.10350756941261044,0.02931607727959208,0.011112838596682599,0.028941104198109205
16.634102505999977,0.0,0.0,0.16907877128695067,0.10035643198967395,-0.10799224746714914,-0.08362628835294385,0.07954695721377586,-0.9933171323874062,1.0,1.0,0.0,-0.0,-0.0,-0.0,-0.07671776931843206,-0.0,-0.0,0.07671776931843206,0.0,-0.0,0.0,0.0,0.0,0.0,-0.3622552752494812,0.002342008054256439,0.4625852108001709,0.18319135904312134,-0.12676334381103516,0.5219396352767944,-0.04958953708410263,0.07388779520988464,-0.1235293298959732,0.17886954545974731,-0.030046746134757996,0.08694570511579514,0.1431814432144165,0.17070429027080536,-0.08812035783194005,0.12275855056941509,0.12402388267219067,0.006527930498123169,-0.0875413715839386,-0.07738380134105682,-0.1542926486581564,0.01847194880247116,-0.0308823324739933,0.0489061763510108,0.11466136202216148,0.0334301320835948,-0.0034745484590530396,-0.01317446306347847,-0.08812035783194005,0.12275855056941509,0.12402388267219067,0.0,-0.0875413715839386,-0.07738380134105682,-0.1542926486581564,0.01847194880247116,-0.0308823324739933,0.0489061763510108,0.11466136202216148,0.0334301320835948,-0.0034745484590530396,-0.01317446306347847,-0.11024208595604786,0.1018099640073502,0.16024004216407733,-0.0,-0.07056311624273937,-0.07516505860639633,-0.1472621556370215,0.013076334005176271,-0.025349543846739306,0.05559828144536643,0.10350756941261044,0.02931607727959208,0.011112838596682599,0.028941104198109205
16.655499309999982,0.0,0.0,0.16907877128695067,0.10035643198967395,-0.10799224746714914,-0.08362628835294385,0.07954695721377586,-0.9933171323874062,1.0,1.0,0.0,-0.0,-0.0,-0.0,-0.07671776931843206,-0.0,-0.0,0.0,0.0,-0.0,0.0,0.0,0.0,0.0,-0.3582633137702942,3.9074569940567017e-05,0.4589604139328003,0.18533578515052795,-0.13794395327568054,0.5200362205505371,-0.05049519240856171,0.08256104588508606,-0.11815592646598816,0.17450113594532013,-0.02575300633907318,0.08420496433973312,0.14017535746097565,0.18292146921157837,-0.0871223674621433,0.12218281719833612,0.12311768345534801,0.007064037024974823,-0.09033652395009995,-0.07785965502262115,-0.15451906248927116,0.020640261471271515,-0.02953898161649704,0.047814073972404,0.11573479697108269,0.032744946889579296,-0.004226069897413254,-0.010120168328285217,-0.0871223674621433,0.12218281719833612,0.12311768345534801,0.0,-0.09033652395009995,-0.07785965502262115,-0.15451906248927116,0.020640261471271515,-0.02953898161649704,0.047814073972404,0.11573479697108269,0.032744946889579296,-0.004226069897413254,-0.010120168328285217,-0.11024208595604786,0.1018099640073502,0.16024004216407733,-0.0,-0.07363107781851097,-0.07516505860639633,-0.1472621556370215,0.013076334005176271,-0.025349543846739306,0.05559828144536643,0.10350756941261044,0.02931607727959208,0.011112838596682599,0.028941104198109205
16.674459256999967,0.0,0.0,0.1734420944169365,0.05672320068981571,-0.11562806294462433,-0.0816506787326358,0.07144434389105633,-0.9940970135698409,1.0,1.0,0.15343553863686413,-0.0,-0.0,-0.0,-0.15343553863686413,-0.0,-0.0,0.0,0.0,-0.0,0.0,0.0,0.0,-0.15343553863686413,-0.33301985263824463,-0.004664070904254913,0.4646300673484802,0.18771150708198547,-0.14545667171478271,0.5143862366676331,-0.06147991493344307,0.07808203995227814,-0.10838757455348969,0.1677502691745758,-0.022581085562705994,0.0759248360991478,0.13344871997833252,0.1886378973722458,-0.08081150217913091,0.12100703082978725,0.124535096809268,0.007657967507839203,-0.09221470355987549,-0.07927215099334717,-0.1572652431204915,0.019520509988069534,-0.02709689363837242,0.04612635727971792,0.11652777716517448,0.030674914829432964,-0.005907729268074036,-0.008691061288118362,-0.08081150217913091,0.12100703082978725,0.124535096809268,0.0,-0.09221470355987549,-0.07927215099334717,-0.1572652431204915,0.019520509988069534,-0.02709689363837242,0.04612635727971792,0.11652777716517448,0.030674914829432964,-0.005907729268074036,-0.008691061288118362,-0.1071741243802767,0.1018099640073502,0.16024004216407733,-0.0,-0.07516505860639633,-0.07516505860639633,-0.1472621556370215,0.013076334005176271,-0.025349543846739306,0.05559828144536643,0.10350756941261044,0.02931607727959208,0.011112838596682599,0.0258731426223376
16.694547141999976,0.0,0.0,0.1734420944169365,0.05672320068981571,-0.11562806294462433,-0.0816506787326358,0.07144434389105633,-0.9940970135698409,1.0,1.0,0.2301533079552962,-0.0,-0.0,-0.0,-0.07671776931843206,-0.0,-0.0,0.0,0.0,-0.0,0.0,0.0,0.0,-0.07671776931843206,-0.3199646770954132,-0.0004646778106689453,0.46737074851989746,0.19146308302879333,-0.14517995715141296,0.5139243602752686,-0.0718778520822525,0.08275845646858215,-0.10748101770877838,0.1653819978237152,-0.020996995270252228,0.07349870353937149,0.13469287753105164,0.1948329210281372,-0.07754770829342306,0.12205687910318375,0.1252202671021223,0.008595861494541168,-0.09214552491903305,-0.0793876200914383,-0.15986472740769386,0.02068961411714554,-0.026870254427194595,0.04553428944200277,0.11692379973828793,0.030068381689488888,-0.005596689879894257,-0.007142305374145508,-0.07754770829342306,0.12205687910318375,0.1252202671021223,0.0,-0.09214552491903305,-0.0793876200914383,-0.15986472740769386,0.02068961411714554,-0.026870254427194595,0.04553428944200277,0.11692379973828793,0.030068381689488888,-0.005596689879894257,-0.007142305374145508,-0.10257218201661973,0.1018099640073502,0.16024004216407733,-0.0,-0.07669903939428213,-0.07516505860639633,-0.1472621556370215,0.013076334005176271,-0.025349543846739306,0.05559828144536643,0.10350756941261044,0.02931607727959208,0.011112838596682599,0.02433916183445224
16.715309781999963,0.0,0.0,0.10253809355466686,0.039269908169872414,-0.17016960206944712,-0.08056653861712129,0.06934841298688922,-0.9943338626796615,1.0,1.0,0.15343553863686413,-0.0,-0.0,-0.0,-0.07671776931843206,-0.0,-0.0,0.0,0.0,-0.0,0.0,0.0,0.0,0.0,-0.31411001086235046,0.005820825695991516,0.46512937545776367,0.20264782011508942,-0.13635337352752686,0.5155568718910217,-0.07616786658763885,0.08050677180290222,-0.11742977797985077,0.16942726075649261,-0.009441331028938293,0.08816548436880112,0.13721632957458496,0.19558167457580566,-0.07608404173515737,0.12362825497984886,0.12465992383658886,0.011392045766115189,-0.08993887901306152,-0.0789794921875,-0.16093723103404045,0.020126692950725555,-0.029357444494962692,0.046545605175197124,0.11981271579861641,0.033735076896846294,-0.004965826869010925,-0.0069551169872283936,-0.07608404173515737,0.12362825497984886,0.12465992383658886,0.0,-0.08993887901306152,-0.0789794921875,-0.16093723103404045,0.020126692950725555,-0.029357444494962692,0.046545605175197124,0.11981271579861641,0.033735076896846294,-0.004965826869010925,-0.0069551169872283936,-0.09950422044084857,0.1018099640073502,0.16024004216407733,-0.0,-0.07976700097005329,-0.07516505860639633,-0.1472621556370215,0.013076334005176271,-0.025349543846739306,0.05559828144536643,0.10350756941261044,0.02931607727959208,0.011112838596682599,0.02433916183445224
16.73487346600001,0.0,0.0,0.09926560120717749,0.05781403147231216,-0.18435040224190105,-0.07856639766892821,0.06428159809275945,-0.9948342561974677,1.0,1.0,0.15343553863686413,-0.0,-0.0,-0.0,-0.15343553863686413,-0.0,-0.0,0.0,0.0,-0.0,0.0,0.0,0.0,0.0,-0.2975582480430603,0.006424076855182648,0.46073347330093384,0.20524942874908447,-0.14731529355049133,0.5211495757102966,-0.07444195449352264,0.07723398506641388,-0.11708347499370575,0.16964396834373474,-0.007196662947535515,0.08826044946908951,0.13244351744651794,0.1971607506275177,-0.07194610103033483,0.12377906776964664,0.1235609482973814,0.012042447924613953,-0.09267935901880264,-0.07758131623268127,-0.1605057530105114,0.01930849626660347,-0.029270868748426437,0.046599782072007656,0.1203738828189671,0.03375881817191839,-0.0061590299010276794,-0.0065603479743003845,-0.07194610103033483,0.12377906776964664,0.1235609482973814,0.0,-0.09267935901880264,-0.07758131623268127,-0.1605057530105114,0.01930849626660347,-0.029270868748426437,0.046599782072007656,0.1203738828189671,0.03375881817191839,-0.0061590299010276794,-0.0065603479743003845,-0.09643625886507741,0.1018099640073502,0.16024004216407733,-0.0,-0.08283496254582445,-0.07516505860639633,-0.1472621556370215,0.013076334005176271,-0.025349543846739306,0.05559828144536643,0.10350756941261044,0.02931607727959208,0.011112838596682599,0.02433916183445224
16.75496027700001,0.0,0.0,0.09926560120717749,0.05781403147231216,-0.18435040224190105,-0.07856639766892821,0.06428159809275945,-0.9948342561974677,1.0,1.0,0.2301533079552962,-0.0,-0.0,-0.0,-0.15343553863686413,-0.0,-0.0,0.0,0.0,-0.0,0.0,0.0,0.0,0.0,-0.282272070646286,0.008963033556938171,0.45938795804977417,0.208638533949852,-0.14818990230560303,0.521996259689331,-0.07606492191553116,0.07638439536094666,-0.11626170575618744,0.16744787991046906,-0.0043219877406954765,0.08648555725812912,0.1317245215177536,0.2014332413673401,-0.06812455668114126,0.12441380694508553,0.12322456948459148,0.012889724224805832,-0.09289801120758057,-0.07736964523792267,-0.16091149486601353,0.019096098840236664,-0.02906542643904686,0.046050759963691235,0.12109255162067711,0.033315095119178295,-0.006338778883218765,-0.005492225289344788,-0.06812455668114126,0.12441380694508553,0.12322456948459148,0.0,-0.09289801120758057,-0.07736964523792267,-0.16091149486601353,0.019096098840236664,-0.02906542643904686,0.046050759963691235,0.12109255162067711,0.033315095119178295,-0.006338778883218765,-0.005492225289344788,-0.09183431650142045,0.1018099640073502,0.16024004216407733,-0.0,-0.08436894333371026,-0.07516505860639633,-0.1472621556370215,0.013076334005176271,-0.025349543846739306,0.05559828144536643,0.10350756941261044,0.02931607727959208,0.011112838596682599,0.02433916183445224
16.77514132799996,0.0,0.0,0.0545415391248228,0.04145156973486533,-0.18653206380689397,-0.07654771066008585,0.06225880467020316,-0.995120238581116,1.0,1.0,0.15343553863686413,-0.0,-0.0,-0.0,-0.0,-0.0,-0.0,0.0,0.0,-0.0,0.0,0.0,0.0,-0.07671776931843206,-0.2764699459075928,0.015076005831360817,0.4555666446685791,0.2147572636604309,-0.14102712273597717,0.5241956114768982,-0.07864458858966827,0.0764719545841217,-0.1227506697177887,0.1685025542974472,0.00416934210807085,0.09577026218175888,0.13436709344387054,0.20401683449745178,-0.06667402549646795,0.1259420500136912,0.12226924113929272,0.014419406652450562,-0.0911073163151741,-0.07681980729103088,-0.1615564115345478,0.019117988646030426,-0.030687667429447174,0.04631442856043577,0.1232153840828687,0.035636271350085735,-0.005678135901689529,-0.004846327006816864,-0.06667402549646795,0.1259420500136912,0.12226924113929272,0.0,-0.0911073163151741,-0.07681980729103088,-0.1615564115345478,0.019117988646030426,-0.030687667429447174,0.04631442856043577,0.1232153840828687,0.035636271350085735,-0.005678135901689529,-0.004846327006816864,-0.08876635492564929,0.1018099640073502,0.16024004216407733,-0.0,-0.08436894333371026,-0.07516505860639633,-0.1472621556370215,0.013076334005176271,-0.025349543846739306,0.05559828144536643,0.10350756941261044,0.02931607727959208,0.011112838596682599,0.02280518104656644
16.79510302799997,0.0,0.0,0.0545415391248228,0.04145156973486533,-0.18653206380689397,-0.07654771066008585,0.06225880467020316,-0.995120238581116,1.0,1.0,0.07671776931843206,-0.0,-0.0,-0.0,-0.0,-0.0,-0.0,0.0,0.0,-0.0,0.0,0.0,0.0,0.0,-0.2744801342487335,0.018476948142051697,0.45594120025634766,0.2170449197292328,-0.13825863599777222,0.5235087275505066,-0.07728943973779678,0.07331565022468567,-0.12756146490573883,0.17308390140533447,0.004609632771462202,0.09892318397760391,0.13912618160247803,0.20527741312980652,-0.06617657258175313,0.1267922855913639,0.12236288003623486,0.014991320669651031,-0.09041519463062286,-0.07699152827262878,-0.16121762432157993,0.018328912556171417,-0.03189036622643471,0.04745976533740759,0.12332545674871653,0.03642450179904699,-0.004488363862037659,-0.00453118234872818,-0.06617657258175313,0.1267922855913639,0.12236288003623486,0.0,-0.09041519463062286,-0.07699152827262878,-0.16121762432157993,0.018328912556171417,-0.03189036622643471,0.04745976533740759,0.12332545674871653,0.03642450179904699,-0.004488363862037659,-0.00453118234872818,-0.08723237413776348,0.1018099640073502,0.16024004216407733,-0.0,-0.08436894333371026,-0.07516505860639633,-0.1472621556370215,0.013076334005176271,-0.025349543846739306,0.05559828144536643,0.10350756941261044,0.02931607727959208,0.011112838596682599,0.02280518104656644
16.81509750699996,0.0,0.0,0.05345070834232634,0.018544123302439753,-0.11017390903214205,-0.07655728120754368,0.060225061216601025,-0.9952446556980679,1.0,1.0,0.15343553863686413,-0.0,-0.07671776931843206,-0.0,-0.0,-0.0,-0.0,0.0,0.0,-0.0,0.0,0.0,0.0,0.0,-0.26484400033950806,0.017072178423404694,0.4541025757789612,0.21809989213943481,-0.1341896653175354,0.523318350315094,-0.07635845988988876,0.06986258924007416,-0.1272272914648056,0.17102833092212677,0.006202125456184149,0.09826541692018509,0.13802579045295715,0.20386192202568054,-0.06376753910444677,0.12644109316170216,0.12190322391688824,0.015255063772201538,-0.08939795196056366,-0.07703912258148193,-0.16098487935960293,0.01746564731001854,-0.0318068228662014,0.04694587271660566,0.12372357991989702,0.03626006003469229,-0.004763461649417877,-0.004885055124759674,-0.06376753910444677,0.12644109316170216,0.12190322391688824,0.0,-0.08939795196056366,-0.07703912258148193,-0.16098487935960293,0.01746564731001854,-0.0318068228662014,0.04694587271660566,0.12372357991989702,0.03626006003469229,-0.004763461649417877,-0.004885055124759674,-0.08416441256199232,0.1018099640073502,0.15870606137619198,-0.0,-0.08436894333371026,-0.07516505860639633,-0.1472621556370215,0.013076334005176271,-0.025349543846739306,0.05559828144536643,0.10350756941261044,0.02931607727959208,0.011112838596682599,0.02280518104656644
16.835520556000006,0.0,0.0,0.001090830782496456,0.014180800172453928,-0.07963064712224129,-0.07655728120754368,0.060225061216601025,-0.9952446556980679,1.0,1.0,0.07671776931843206,-0.0,-0.0,-0.0,-0.0,-0.0,-0.0,0.0,0.0,-0.0,0.0,0.0,0.0,0.0,-0.2713679373264313,0.030528686940670013,0.4416264295578003,0.22395938634872437,-0.12232751399278641,0.5299449563026428,-0.07285386323928833,0.07009196281433105,-0.13718605041503906,0.1737256497144699,0.01823721081018448,0.11998570710420609,0.14457622170448303,0.2042185366153717,-0.06539852335117757,0.12980522029101849,0.11878418736159801,0.016719937324523926,-0.08643241412937641,-0.07538247108459473,-0.16010873019695282,0.017522990703582764,-0.034296512603759766,0.04762020241469145,0.1267323512583971,0.041690132580697536,-0.0031258538365364075,-0.0047959014773368835,-0.06539852335117757,0.12980522029101849,0.11878418736159801,0.0,-0.08643241412937641,-0.07538247108459473,-0.16010873019695282,0.017522990703582764,-0.034296512603759766,0.04762020241469145,0.1267323512583971,0.041690132580697536,-0.0031258538365364075,-0.0047959014773368835,-0.08263043177410652,0.1018099640073502,0.15870606137619198,-0.0,-0.08436894333371026,-0.07516505860639633,-0.1472621556370215,0.013076334005176271,-0.025349543846739306,0.05559828144536643,0.10350756941261044,0.02931607727959208,0.011112838596682599,0.02280518104656644
16.855359127999975,0.0,0.0,0.001090830782496456,0.014180800172453928,-0.07963064712224129,-0.07655728120754368,0.060225061216601025,-0.9952446556980679,1.0,1.0,0.07671776931843206,-0.0,-0.0,-0.0,-0.0,-0.0,-0.0,0.0,0.0,-0.0,0.0,0.0,0.0,0.0,-0.26501134037971497,0.029948987066745758,0.44525235891342163,0.2274439036846161,-0.11836052685976028,0.5259326696395874,-0.0730123519897461,0.06514318287372589,-0.14123405516147614,0.17766252160072327,0.02125038206577301,0.12044965475797653,0.14580915868282318,0.20327335596084595,-0.0638093741144985,0.12966029532253742,0.11969066970050335,0.017591066658496857,-0.08544066734611988,-0.07638554275035858,-0.16014835238456726,0.016285795718431473,-0.035308513790369034,0.04860442038625479,0.12748564407229424,0.04180611949414015,-0.0028176195919513702,-0.005032196640968323,-0.0638093741144985,0.12966029532253742,0.11969066970050335,0.0,-0.08544066734611988,-0.07638554275035858,-0.16014835238456726,0.016285795718431473,-0.035308513790369034,0.04860442038625479,0.12748564407229424,0.04180611949414015,-0.0028176195919513702,-0.005032196640968323,-0.08109645098622072,0.1018099640073502,0.15870606137619198,-0.0,-0.08436894333371026,-0.07516505860639633,-0.1472621556370215,0.013076334005176271,-0.025349543846739306,0.05559828144536643,0.10350756941261044,0.02931607727959208,0.011112838596682599,0.02280518104656644
16.875305588000003,0.0,0.0,-0.006544984694978736,0.00545415391248228,-0.06872233929727672,-0.07648423722870074,0.05914781012352857,-0.9953148738028257,1.0,1.0,0.07671776931843206,-0.0,-0.0,-0.0,-0.0,-0.0,-0.0,0.0,0.0,-0.0,0.0,0.0,0.0,0.0,-0.2612512409687042,0.0313996896147728,0.44519519805908203,0.2295742928981781,-0.11482702940702438,0.5254629254341125,-0.07303270697593689,0.06443868577480316,-0.14353375136852264,0.1787666231393814,0.022940095514059067,0.1223486140370369,0.14607805013656616,0.20300427079200745,-0.06286934926174581,0.13002297095954418,0.11967637948691845,0.01812366396188736,-0.0845572929829359,-0.0765029788017273,-0.16015344113111496,0.01610967144370079,-0.03588343784213066,0.04888044577091932,0.12790807243436575,0.04228085931390524,-0.002750396728515625,-0.005099467933177948,-0.06286934926174581,0.13002297095954418,0.11967637948691845,0.0,-0.0845572929829359,-0.0765029788017273,-0.16015344113111496,0.01610967144370079,-0.03588343784213066,0.04888044577091932,0.12790807243436575,0.04228085931390524,-0.002750396728515625,-0.005099467933177948,-0.07956247019833536,0.1018099640073502,0.15870606137619198,-0.0,-0.08436894333371026,-0.07516505860639633,-0.1472621556370215,0.013076334005176271,-0.025349543846739306,0.05559828144536643,0.10350756941261044,0.02931607727959208,0.011112838596682599,0.02280518104656644
16.895935339999994,0.0,0.0,-0.006544984694978736,0.00545415391248228,-0.06872233929727672,-0.07648423722870074,0.05914781012352857,-0.9953148738028257,1.0,1.0,0.07671776931843206,-0.0,-0.0,-0.0,-0.0,-0.0,-0.0,0.0,0.0,-0.0,0.0,0.0,0.0,0.0,-0.25701966881752014,0.03234710171818733,0.4452551603317261,0.2306695580482483,-0.1138007715344429,0.5257542133331299,-0.07275962829589844,0.06353996694087982,-0.14460448920726776,0.17912745475769043,0.023300962522625923,0.12273333221673965,0.1464156061410904,0.20298853516578674,-0.06181145622394979,0.13025982398539782,0.11969137005507946,0.018397480249404907,-0.08430072851479053,-0.07643015682697296,-0.16008517146110535,0.015884991735219955,-0.03615112230181694,0.04897065367549658,0.12799828918650746,0.04237703885883093,-0.0026660077273845673,-0.005103401839733124,-0.06181145622394979,0.13025982398539782,0.11969137005507946,0.0,-0.08430072851479053,-0.07643015682697296,-0.16008517146110535,0.015884991735219955,-0.03615112230181694,0.04897065367549658,0.12799828918650746,0.04237703885883093,-0.0026660077273845673,-0.005103401839733124,-0.07802848941044956,0.1018099640073502,0.15870606137619198,-0.0,-0.08436894333371026,-0.07516505860639633,-0.1472621556370215,0.013076334005176271,-0.025349543846739306,0.05559828144536643,0.10350756941261044,0.02931607727959208,0.011112838596682599,0.02280518104656644
16.915586023000003,0.0,0.0,-0.017453292519943295,0.0,-0.0916297857297023,-0.07655728120754368,0.060225061216601025,-0.9952446556980679,1.0,1.0,0.07671776931843206,-0.0,-0.0,-0.0,-0.0,-0.0,-0.0,0.0,0.0,-0.0,0.0,0.07671776931843206,0.0,0.0,-0.2547190487384796,0.03554609790444374,0.44457584619522095,0.23402148485183716,-0.10768354684114456,0.5254428386688232,-0.07193971425294876,0.060508791357278824,-0.14787887036800385,0.17961148917675018,0.02589862421154976,0.12971243262290955,0.1478375494480133,0.19982308149337769,-0.06123630120418966,0.13105957303196192,0.11952154152095318,0.019235461950302124,-0.08277142234146595,-0.07650800049304962,-0.15988019295036793,0.015127197839319706,-0.03696971759200096,0.04909166228026152,0.12864770460873842,0.0441218139603734,-0.002310521900653839,-0.005894765257835388,-0.06123630120418966,0.13105957303196192,0.11952154152095318,0.0,-0.08277142234146595,-0.07650800049304962,-0.15988019295036793,0.015127197839319706,-0.03696971759200096,0.04909166228026152,0.12864770460873842,0.0441218139603734,-0.002310521900653839,-0.005894765257835388,-0.07649450862256375,0.1018099640073502,0.15870606137619198,-0.0,-0.08436894333371026,-0.07516505860639633,-0.1472621556370215,0.013076334005176271,-0.025349543846739306,0.05559828144536643,0.10350756941261044,0.030850058067477884,0.011112838596682599,0.02280518104656644
16.935495668999977,0.0,0.0,-0.05126904677733343,-0.001090830782496456,-0.04690572364734761,-0.07655728120754368,0.060225061216601025,-0.9952446556980679,1.0,1.0,0.07671776931843206,-0.0,-0.0,-0.0,-0.0,-0.0,-0.0,0.0,0.0,-0.0,0.0,0.07671776931843206,0.0,0.0,-0.2583603262901306,0.04256176948547363,0.43524301052093506,0.2382955402135849,-0.09862089902162552,0.5293761491775513,-0.06669989228248596,0.056632209569215775,-0.15505807101726532,0.18156035244464874,0.0354103222489357,0.15473344922065735,0.15068286657333374,0.19030065834522247,-0.06214662059210241,0.1328134909272194,0.1171883326023817,0.02030397579073906,-0.08050576038658619,-0.07552467286586761,-0.15857023745775223,0.014158052392303944,-0.03876451775431633,0.049578878097236156,0.1310256291180849,0.05037706810981035,-0.0015991926193237305,-0.008275371044874191,-0.06214662059210241,0.1328134909272194,0.1171883326023817,0.0,-0.08050576038658619,-0.07552467286586761,-0.15857023745775223,0.014158052392303944,-0.03876451775431633,0.049578878097236156,0.1310256291180849,0.05037706810981035,-0.0015991926193237305,-0.008275371044874191,-0.0749605278346784,0.1018099640073502,0.15870606137619198,-0.0,-0.08283496254582445,-0.07516505860639633,-0.1472621556370215,0.013076334005176271,-0.025349543846739306,0.05559828144536643,0.10350756941261044,0.03238403885536369,0.011112838596682599,0.02280518104656644
16.95605412499998,0.0,0.0,-0.07417649320975901,-0.007635815477475192,-0.025089107997418487,-0.07654771066008585,0.06225880467020316,-0.995120238581116,1.0,1.0,0.0,-0.0,-0.0,-0.0,0.07671776931843206,-0.0,-0.0,0.0,0.0,-0.0,0.0,0.07671776931843206,0.0,0.0,-0.2645273506641388,0.04753348231315613,0.43020355701446533,0.24377939105033875,-0.09176168590784073,0.5294827818870544,-0.06237583979964256,0.05518746003508568,-0.16203638911247253,0.1847013533115387,0.045264244079589844,0.1783638298511505,0.15363918244838715,0.1821504831314087,-0.06368837668560445,0.13405641913414001,0.11592846922576427,0.02167493849992752,-0.07879095710813999,-0.07549801468849182,-0.15748922433704138,0.01379686500877142,-0.040509097278118134,0.050364128313958645,0.13348910957574844,0.05628466326743364,-0.000860113650560379,-0.010312914848327637,-0.06368837668560445,0.13405641913414001,0.11592846922576427,0.0,-0.07879095710813999,-0.07549801468849182,-0.15748922433704138,0.01379686500877142,-0.040509097278118134,0.050364128313958645,0.13348910957574844,0.05628466326743364,-0.000860113650560379,-0.010312914848327637,-0.0749605278346784,0.1018099640073502,0.15870606137619198,-0.0,-0.08283496254582445,-0.07516505860639633,-0.1472621556370215,0.013076334005176271,-0.025349543846739306,0.05559828144536643,0.10350756941261044,0.033918019643249045,0.011112838596682599,0.02280518104656644
16.975620308999964,0.0,0.0,-0.05672320068981571,0.0,-0.00545415391248228,-0.07654280714543676,0.06327538724022772,-0.9950564928906779,1.0,1.0,0.0,-0.0,-0.0,-0.0,-0.0,-0.0,-0.0,0.0,0.0,-0.0,0.0,0.07671776931843206,0.0,0.0,-0.26656246185302734,0.04979325085878372,0.42975515127182007,0.24511943757534027,-0.09466467052698135,0.5300217866897583,-0.05690612271428108,0.05015023425221443,-0.16501466929912567,0.1857597678899765,0.04318064823746681,0.19071164727210999,0.15410968661308289,0.17175570130348206,-0.06419715448282659,0.1346213612705469,0.11581636779010296,0.022009950131177902,-0.07951670326292515,-0.07536326348781586,-0.156121795065701,0.012537558563053608,-0.04125366732478142,0.050628731958568096,0.13296821061521769,0.05937161762267351,-0.0007424876093864441,-0.012911610305309296,-0.06419715448282659,0.1346213612705469,0.11581636779010296,0.0,-0.07951670326292515,-0.07536326348781586,-0.156121795065701,0.012537558563053608,-0.04125366732478142,0.050628731958568096,0.13296821061521769,0.05937161762267351,-0.0007424876093864441,-0.012911610305309296,-0.0749605278346784,0.1018099640073502,0.15870606137619198,-0.0,-0.08283496254582445,-0.07516505860639633,-0.1472621556370215,0.013076334005176271,-0.025349543846739306,0.05559828144536643,0.10350756941261044,0.03698598121902065,0.011112838596682599,0.02280518104656644
