time_s,forward_cmd_m_s,yaw_cmd_rad_s,gyro_x,gyro_y,gyro_z,grav_x,grav_y,grav_z,left_contact,right_contact,left_hip_yaw_target_rad,left_hip_roll_target_rad,left_hip_pitch_target_rad,left_knee_target_rad,left_ankle_target_rad,neck_pitch_target_rad,head_pitch_target_rad,head_yaw_target_rad,head_roll_target_rad,right_hip_yaw_target_rad,right_hip_roll_target_rad,right_hip_pitch_target_rad,right_knee_target_rad,right_ankle_target_rad,left_hip_yaw_actual_rad,left_hip_roll_actual_rad,left_hip_pitch_actual_rad,left_knee_actual_rad,left_ankle_actual_rad,neck_pitch_actual_rad,head_pitch_actual_rad,head_yaw_actual_rad,head_roll_actual_rad,right_hip_yaw_actual_rad,right_hip_roll_actual_rad,right_hip_pitch_actual_rad,right_knee_actual_rad,right_ankle_actual_rad
21.316573181000194,0.0,0.0,0.002181661564992912,-0.001090830782496456,-0.007635815477475192,-0.06837371900563753,-0.08572227457423212,-0.9939701837535964,1.0,1.0,0.02798988693393767,0.08214448019862175,-0.019478315487504005,0.0,-0.009679384529590607,-0.1804855316877365,-0.2037000060081482,0.024842552840709686,-0.004363002721220255,0.001242147060111165,0.10696863941848278,0.021486631594598293,0.0,0.001114174723625183,-0.005931392379824388,0.1171497718862069,0.016045848102827442,0.0015339807878858025,-0.08436894333371026,-0.21168934872821854,-0.13959225169759337,0.01000837242940511,0.008398033486744796,-0.00422696928217365,0.08970174232164,0.007840346249193067,-0.00422696928217365,-0.06463172386291498
21.33506866100015,0.0,0.0,0.00545415391248228,0.0,-0.009817477042468103,-0.06837371900563753,-0.08572227457423212,-0.9939701837535964,1.0,1.0,0.02364640892483294,0.09728948585689068,-0.014135723933577538,0.0,-0.031858934089541435,-0.1586589254438877,-0.2263370305299759,0.022656168788671494,-0.03514031693339348,0.0047555811470374465,0.11501714820042253,0.0351673336699605,0.0,-0.008123420178890228,-0.005931392379824388,0.10947986794677877,0.01451186731494164,0.0015339807878858025,-0.0813009817579391,-0.20708740636456158,-0.13805827090970757,0.01000837242940511,0.008398033486744796,-0.00422696928217365,0.08816776153375419,0.007840346249193067,-0.00422696928217365,-0.06463172386291498
21.35512385800007,0.0,0.0,0.008726646259971648,0.002181661564992912,-0.001090830782496456,-0.06837371900563753,-0.08572227457423212,-0.9939701837535964,1.0,1.0,0.015680928016081452,0.1005555260926485,-0.007373204454779625,0.0,-0.02548493631184101,-0.13882536441087723,-0.22236450761556625,0.017259493470191956,-0.04335393011569977,0.0025073892902582884,0.11602245504036546,0.027719744481146336,0.0,-0.009902030229568481,-0.005931392379824388,0.09414006006792208,0.012977886527055837,-0.0,-0.07209709703062517,-0.1948155600614765,-0.12732040539450828,0.01000837242940511,0.008398033486744796,-0.00422696928217365,0.07742989601855446,0.007840346249193067,-0.005760950070059452,-0.060029781499258014
21.37511685200002,0.0,0.0,0.09490227807719166,0.032724923474893676,0.011999138607461015,-0.06733989243530855,-0.08876622184654308,-0.9937735641210685,1.0,1.0,0.025101382518187165,0.11637813504785299,-0.0123819001019001,0.0,-0.03054128587245941,-0.1238892450928688,-0.2169007882475853,0.0192270465195179,-0.04810407757759094,0.0013546932023018599,0.12016685889102519,0.01630688738077879,0.0,-0.031051864847540855,-0.002863430804053227,0.081868213764837,0.012977886527055837,-0.0,-0.06135923151542544,-0.19174759848570533,-0.11044661672776623,0.01000837242940511,0.008398033486744796,-0.00422696928217365,0.06209008813969821,0.006306365461307709,-0.005760950070059452,-0.05542783913560105
21.394742222000104,0.0,0.0,0.26070855701665296,0.1439896632895322,-0.05345070834232634,-0.06325210253744534,-0.09283776340173429,-0.993670126959222,1.0,1.0,0.03992256731726229,0.12281688652001321,-0.0291213970631361,0.0,-0.012896671891212463,-0.10864883661270142,-0.21326261013746262,0.010234075598418713,-0.055175211280584335,-0.01032141875475645,0.12094006291590631,0.0023766523227095604,0.0,-0.05601525492966175,0.000204530771717934,0.07419830982540887,0.008375944163398874,-0.0,-0.05522330836388312,-0.18867963690993372,-0.09817477042468115,0.01000837242940511,0.008398033486744796,-0.005760950070059452,0.052886203412384286,0.006306365461307709,-0.005760950070059452,-0.05235987755982989
21.414785215000165,0.0,0.0,-0.050178215994836975,0.26070855701665296,-0.0719948316447661,-0.06122525479763391,-0.09183788219645087,-0.9938899695482571,1.0,1.0,0.009537681704387069,0.10845762211829424,-0.011083867400884628,0.0,-0.016427285969257355,-0.12557630240917206,-0.18664826825261116,-0.0066657233983278275,-0.06449539214372635,-0.016577263362705708,0.1228018215042539,-0.007278186269104481,0.0,-0.04775227792561054,0.003272492347489539,0.07113034824963771,0.0022400210118565522,-0.0,-0.053689327575997314,-0.18561167533416256,-0.09050486648525302,0.01000837242940511,0.0053300719109731914,-0.005760950070059452,0.04828426104872732,0.006306365461307709,-0.005760950070059452,-0.05082589677194409
21.434773006000114,0.0,0.0,0.028361600344907856,0.18435040224190105,-0.037088246604879506,-0.0561346662037437,-0.09287735680983049,-0.9940939069535702,1.0,1.0,0.019451169529929757,0.10881334450095892,-0.020856473594903946,0.0,-0.009527970105409622,-0.12631843239068985,-0.18172376975417137,-0.010303650982677937,-0.07743106037378311,-0.01986525859683752,0.10715322475880384,0.010291478130966425,0.0,-0.03734572418034077,0.00940841549903186,0.07113034824963771,-0.0008279405639146087,-0.0,-0.053689327575997314,-0.1794757521826198,-0.08590292412159606,0.01000837242940511,-0.0038738128163407354,-0.005760950070059452,0.04828426104872732,0.006306365461307709,-0.005760950070059452,-0.05082589677194409
21.455019255000025,0.0,0.0,0.22689280275926285,-0.02399827721492203,-0.06981317007977318,-0.05611844650509607,-0.0959115267541642,-0.9938066708357013,1.0,1.0,0.038913714000955224,0.11560609005391598,-0.042810866609215736,0.0,0.0015842393040657043,-0.11435957252979279,-0.20503153651952744,-0.003211372531950474,-0.08137625455856323,-0.005041822791099548,0.10238266550004482,0.028082280419766903,0.0,-0.03056199848651886,0.00940841549903186,0.07113034824963771,-0.0038959021396862137,-0.0,-0.053689327575997314,-0.17640779060684864,-0.08436894333371026,0.01000837242940511,-0.01461167833154002,-0.007294930857945255,0.052886203412384286,0.006306365461307709,-0.005760950070059452,-0.05082589677194409
21.47490004700012,0.0,0.0,0.28034351110158917,-0.0719948316447661,-0.26070855701665296,-0.057152796071341744,-0.10307915005724134,-0.9930298317395627,1.0,1.0,0.03940418944694102,0.11331792175769806,-0.043856581673026085,0.0,0.0062320418655872345,-0.09927058219909668,-0.21619799733161926,-0.009451087564229965,-0.08598796278238297,0.001860698452219367,0.09953973814845085,0.029515043832361698,0.0,-0.024368148297071457,0.00940841549903186,0.07266432903752307,-0.005429882927571572,-0.0,-0.053689327575997314,-0.17180584824319167,-0.08283496254582445,0.01000837242940511,-0.025349543846739306,-0.007294930857945255,0.06055610735181241,0.006306365461307709,-0.005760950070059452,-0.05082589677194409
21.49506937199999,0.0,0.0,-0.02181661564992912,0.011999138607461015,-0.4166973589136462,-0.05614133350800443,-0.10207515183273533,-0.9931912273325147,1.0,1.0,0.01370894187130034,0.10058652982115746,-0.021527612581849098,0.0,-0.015025921165943146,-0.10572990030050278,-0.19081398472189903,-0.021460413932800293,-0.08067824691534042,-0.004219867289066315,0.11009021755307913,0.020644941367208958,0.0,-0.03104073368012905,0.014010357862688824,0.07726627140118003,-0.010031825291228536,-0.0,-0.053689327575997314,-0.16566992509164935,-0.0813009817579391,0.01000837242940511,-0.036087409361939035,-0.007294930857945255,0.06822601129124098,0.007840346249193067,-0.005760950070059452,-0.05082589677194409
21.515106347000028,0.0,0.0,-0.03490658503988659,-0.038179077387375956,-0.42978732830360367,-0.05613545562894089,-0.10308510942769145,-0.9930872423083542,1.0,1.0,0.015414597699418664,0.10580719821155071,-0.01994386501610279,0.0,-0.016998015344142914,-0.11791659146547318,-0.1814078465104103,-0.02202947810292244,-0.07912349700927734,-0.006350090727210045,0.10451572388410568,0.01760222017765045,0.0,-0.03312751650810242,0.02014628101423159,0.081868213764837,-0.014633767654885499,-0.0,-0.05062136600022615,-0.15646604036433542,-0.08743690490948142,0.01000837242940511,-0.04529129408925296,-0.005760950070059452,0.07742989601855446,0.007840346249193067,-0.005760950070059452,-0.05082589677194409
21.535279246000073,0.0,0.0,0.0818123086872342,-0.08835729338221293,-0.43196898986859655,-0.057140655806392236,-0.10509799192961428,-0.992818894636065,1.0,1.0,0.026889905566349626,0.1060155313462019,-0.029528463259339333,0.0,-0.00887661799788475,-0.11482258886098862,-0.18688861653208733,-0.022513967007398605,-0.0781165212392807,-0.0021340087987482548,0.10781129915267229,0.022186663933098316,0.0,-0.03184765391051769,0.02168026180211695,0.0834021945527228,-0.019235710018542462,-0.0,-0.04448544284868339,-0.1487961364249073,-0.09817477042468115,0.008474391641519308,-0.052961198028681086,-0.005760950070059452,0.08509979995798303,0.007840346249193067,-0.005760950070059452,-0.05082589677194409
21.555331961000093,0.0,0.0,-0.011999138607461015,-0.018544123302439753,-0.4930555136883981,-0.056123530086741924,-0.10510406543517124,-0.9928762686254525,1.0,1.0,0.011054698610678315,0.10589518211781979,-0.016544736921787262,0.0,-0.017767876386642456,-0.11320579797029495,-0.17227322235703468,-0.03016243502497673,-0.07479608058929443,-0.002568657975643873,0.11206850782036781,0.01741594122722745,0.0,-0.035070762038230896,0.02168026180211695,0.08953811770426512,-0.023837652382199426,-0.0,-0.03988350048502687,-0.14266021327336453,-0.11044661672776623,0.005406430065748147,-0.05756314039233805,-0.005760950070059452,0.08970174232164,0.007840346249193067,-0.005760950070059452,-0.05082589677194409
21.57528921500011,0.0,0.0,-0.20725784867432664,0.038179077387375956,-0.4286964975211072,-0.05406224374861372,-0.0999641488181914,-0.993521234172637,1.0,1.0,0.0010831074323505163,0.09856253676116467,-0.00838356465101242,0.0,-0.022791758179664612,-0.1275050789117813,-0.15359599515795708,-0.036276403814554214,-0.06795653700828552,-0.005997328087687492,0.11795344855636358,0.015741384122520685,0.0,-0.032577723264694214,0.02168026180211695,0.09414006006792208,-0.02843959474585639,-0.0,-0.035281558121369905,-0.14112623248547917,-0.12425244381873712,0.0008044877020911834,-0.05909712118022341,-0.00422696928217365,0.09583766547318232,0.007840346249193067,-0.005760950070059452,-0.05082589677194409
21.59532194900021,0.0,0.0,-0.2083486794568231,0.013089969389957472,-0.284706834231575,-0.05306108636761426,-0.09693852317160298,-0.9938749638856978,1.0,1.0,0.0021770159946754575,0.10050576366484165,-0.004653905518352985,0.0,-0.022614452987909317,-0.1395239233970642,-0.15285786055028439,-0.03532744571566582,-0.06500464677810669,-0.002824067138135433,0.11681645689532161,0.02052863035351038,0.0,-0.024731285870075226,0.02168026180211695,0.09720802164369324,-0.02997357553374219,-0.0,-0.0322135965455983,-0.13959225169759337,-0.13805827090970757,-0.00379745466156578,-0.06063110196810921,-0.002692988494288291,0.10043960783683928,0.007840346249193067,-0.005760950070059452,-0.05082589677194409
21.615606513000102,0.0,0.0,-0.15817046346198613,0.018544123302439753,-0.1505346479845109,-0.05307147616593459,-0.09491629391215226,-0.9940695728003902,1.0,1.0,0.0036958465352654457,0.10102273896336555,-0.004959948360919952,0.0,-0.019802384078502655,-0.14334192872047424,-0.15975221805274487,-0.028409991413354874,-0.06436891853809357,-0.0005011693574488163,0.11639741016551852,0.02890594396740198,0.0,-0.019870318472385406,0.02168026180211695,0.09720802164369324,-0.02997357553374219,-0.0,-0.0322135965455983,-0.13959225169759337,-0.15186409800067846,-0.011467358600993904,-0.06063110196810921,-0.0011590077064024887,0.10350756941261044,0.007840346249193067,-0.005760950070059452,-0.05082589677194409
21.635461657000178,0.0,0.0,-0.23671027980173096,0.04690572364734761,-0.032724923474893676,-0.05203480265581491,-0.08774496134117808,-0.9947829919494027,1.0,1.0,-0.003417439991608262,0.10376524366438389,0.0027420963160693645,0.0,-0.020828120410442352,-0.14615263044834137,-0.1534927301108837,-0.030747786164283752,-0.06008191779255867,0.0038889736752025783,0.12198870696011,0.027757803909480572,0.0,-0.023115407675504684,0.018612300226345788,0.09567404085580788,-0.02997357553374219,-0.0,-0.03067961575771294,-0.14112623248547917,-0.1672039058795347,-0.01760328175253667,-0.06063110196810921,0.0019089538693686722,0.10657553098838204,0.007840346249193067,-0.005760950070059452,-0.04929191598405873
21.6555734640001,0.0,0.0,-0.4166973589136462,0.016362461737446838,0.05999569303730508,-0.052053012598996445,-0.08369307908073938,-0.9951311232161084,1.0,1.0,-0.011836075922474265,0.10573264211416245,0.007653886219486594,0.0,-0.011546086519956589,-0.1576574556529522,-0.1427260630298406,-0.029643826186656952,-0.05958149954676628,0.001478639431297779,0.1240413230843842,0.0308297211304307,0.0,-0.021410241723060608,0.015544338650574627,0.09567404085580788,-0.02843959474585639,-0.0,-0.02914563496982714,-0.14112623248547917,-0.17640779060684864,-0.022205224116193634,-0.06216508275599501,0.0019089538693686722,0.1081095117762674,0.007840346249193067,-0.00422696928217365,-0.046223954408287124
21.675657623999996,0.0,0.0,-0.4559672670835186,-0.011999138607461015,0.1265363707695889,-0.052049569671380636,-0.07144058582346363,-0.9960858823385784,1.0,1.0,-0.009516399120911956,0.10886604711413383,0.010082530090585351,0.0,-0.01601315289735794,-0.16412744671106339,-0.13578143576160073,-0.024504119530320168,-0.053560011088848114,0.0025042446795850992,0.12936713080853224,0.02633747737854719,0.0,-0.026660064235329628,0.014010357862688824,0.09567404085580788,-0.023837652382199426,0.0015339807878858025,-0.027611654181941336,-0.14112623248547917,-0.18407769454627676,-0.025273185691964795,-0.06216508275599501,0.0034429346572544747,0.11117747335203901,0.007840346249193067,-0.00422696928217365,-0.041622012044630605
21.695676710000043,0.0,0.0,-0.39924406639370286,0.026179938779914945,0.09272061651219876,-0.052025271738157415,-0.06324640877972078,-0.9966409899643096,1.0,1.0,-0.011466201161965728,0.10955823585391045,0.011022662045434117,0.0,-0.020236648619174957,-0.16741733998060226,-0.1342626423574984,-0.02425462193787098,-0.05309302359819412,0.003784483706112951,0.12992254830896854,0.025579984299838543,0.0,-0.02861165814101696,0.010942396286917663,0.09567404085580788,-0.019235710018542462,0.0015339807878858025,-0.026077673394055978,-0.14419419406125034,-0.18867963690993372,-0.025273185691964795,-0.06216508275599501,0.0034429346572544747,0.11271145413992437,0.00937432703707887,-0.00422696928217365,-0.0400880312567448
21.715850590000173,0.0,0.0,-0.40033489717619936,0.05235987755982989,0.12217304763960307,-0.051020594098713797,-0.05918388915450801,-0.9969424086888676,1.0,1.0,-0.010480349650606513,0.11349177733063698,0.017526637762784958,0.0,-0.02068324387073517,-0.16967593133449554,-0.1386813847348094,-0.01846606284379959,-0.05210798233747482,0.0037499491591006517,0.1317056491971016,0.029569230042397976,0.0,-0.024413231760263443,0.007874434711146502,0.09567404085580788,-0.014633767654885499,0.0015339807878858025,-0.024543692606170175,-0.15033011721279266,-0.18867963690993372,-0.025273185691964795,-0.06369906354388037,0.0034429346572544747,0.11271145413992437,0.00937432703707887,-0.00422696928217365,-0.03702006968097364
21.7357873630001,0.0,0.0,-0.39269908169872414,0.028361600344907856,0.13526301702956053,-0.050999357483542195,-0.047939396034529666,-0.9975474323780853,1.0,1.0,-0.012306401273235679,0.11459661927074194,0.016175875440239906,0.0,-0.023333996534347534,-0.17047037929296494,-0.13948891265317798,-0.014594879001379013,-0.048402804881334305,0.005102651717606932,0.13284520525485277,0.02894160244613886,0.0,-0.029462233185768127,0.004806473135374897,0.09567404085580788,-0.010031825291228536,0.0015339807878858025,-0.024543692606170175,-0.15493205957644962,-0.18867963690993372,-0.025273185691964795,-0.06676702511965198,0.0034429346572544747,0.11424543492781017,0.010908307824964672,-0.00422696928217365,-0.03702006968097364
21.755882893000035,0.0,0.0,-0.284706834231575,0.016362461737446838,0.10362892433716332,-0.05100660149753676,-0.04488580931783235,-0.997689125291819,1.0,1.0,-0.009306719293817878,0.11936248349957168,0.022067624144256115,0.0,-0.02584802359342575,-0.17164382338523865,-0.14800344919785857,-0.012856267392635345,-0.043263353407382965,0.004890686715953052,0.13372094184160233,0.03109151218086481,0.0,-0.027834400534629822,0.003272492347489539,0.09567404085580788,-0.006963863715457375,0.0015339807878858025,-0.024543692606170175,-0.15953400194010658,-0.18714565612204836,-0.025273185691964795,-0.06830100590753733,0.0034429346572544747,0.11731339650358133,0.013976269400735833,-0.00422696928217365,-0.03702006968097364
21.77603527300016,0.0,0.0,-0.18871372537188688,0.017453292519943295,0.09817477042468103,-0.052041331106924965,-0.036735057251947034,-0.997969055344561,1.0,1.0,-0.010044915368780494,0.12141456734389067,0.023548456840217113,0.0,-0.025375666096806526,-0.17039693892002106,-0.1524303462356329,-0.011170994490385056,-0.03979116305708885,0.006461162818595767,0.13466214295476675,0.03199079167097807,0.0,-0.027941906824707985,0.0017385115596037365,0.09567404085580788,-0.002361921351800411,0.0015339807878858025,-0.024543692606170175,-0.16260196351587775,-0.1825437137583914,-0.025273185691964795,-0.06830100590753733,0.0034429346572544747,0.11884737729146713,0.015510250188621635,-0.00422696928217365,-0.03702006968097364
21.796789682000053,0.0,0.0,-0.16689710972195776,0.025089107997418487,0.0818123086872342,-0.05102909617610403,-0.033679203476228665,-0.9981291212045947,1.0,1.0,-0.00910503207705915,0.12111549894325435,0.025100482627749443,0.0,-0.029423806816339493,-0.16740302741527557,-0.15466002002358437,-0.01225797738879919,-0.037794582545757294,0.009373232256621122,0.1360931396484375,0.03242355305701494,0.0,-0.029653308913111687,0.000204530771717934,0.09567404085580788,0.0007060402239707497,0.0015339807878858025,-0.024543692606170175,-0.1672039058795347,-0.17640779060684864,-0.025273185691964795,-0.06830100590753733,0.0034429346572544747,0.11884737729146713,0.017044230976506994,-0.00422696928217365,-0.03702006968097364
21.816170371,0.0,0.0,-0.1341721862470641,0.009817477042468103,0.13962634015954636,-0.05103082367999386,-0.03265972715519607,-0.9981629111806798,1.0,1.0,-0.011231679236516356,0.1243814725894481,0.02372207958251238,0.0,-0.03606727160513401,-0.16602149605751038,-0.15294587146490812,-0.005338270217180252,-0.03741249442100525,0.007766795810312033,0.13553236797451973,0.03232719283550978,0.0,-0.0346648134291172,-0.0013294500161674244,0.09720802164369324,0.0037740017997419106,0.0015339807878858025,-0.024543692606170175,-0.1687378866674205,-0.1702718674553063,-0.02067124332830783,-0.06676702511965198,0.0034429346572544747,0.11884737729146713,0.0201121925522786,-0.00422696928217365,-0.03702006968097364
21.83631210400017,0.0,0.0,-0.09490227807719166,-0.00545415391248228,0.18435040224190105,-0.05103568821032497,-0.02960069916198848,-0.9982580613939563,1.0,1.0,-0.011368285631760955,0.12361371889710426,0.023945962078869343,0.0,-0.03732912242412567,-0.1678619496524334,-0.15283356234431267,-0.003231021575629711,-0.03381698951125145,0.007407187484204769,0.13689779117703438,0.03342652413994074,0.0,-0.03337346389889717,-0.0013294500161674244,0.10027598321946485,0.008375944163398874,0.0015339807878858025,-0.024543692606170175,-0.1687378866674205,-0.16413594430376355,-0.01913726254042203,-0.06369906354388037,0.0034429346572544747,0.12038135807935249,0.021646173340163957,-0.00422696928217365,-0.03702006968097364
21.85632420900015,0.0,0.0,-0.1090830782496456,-0.015271630954950384,0.14835298641951802,-0.052055208838834736,-0.028579330342889665,-0.9982351812623602,1.0,1.0,-0.014540605014190078,0.121250030817464,0.022174539975821972,0.0,-0.03793685510754585,-0.16790682077407837,-0.14784766640514135,-0.006691429298371077,-0.035400390625,0.00888347439467907,0.13875059969723225,0.032506044022738934,0.0,-0.036477092653512955,-0.002863430804053227,0.10334394479523601,0.009909924951284677,0.0015339807878858025,-0.026077673394055978,-0.1687378866674205,-0.1610679827279924,-0.01760328175253667,-0.06063110196810921,0.0034429346572544747,0.1219153388672383,0.021646173340163957,-0.00422696928217365,-0.03702006968097364
21.876352128999997,0.0,0.0,-0.11453723216212788,-0.007635815477475192,0.04145156973486533,-0.052059520784849614,-0.025519372933749812,-0.9983178691682926,1.0,1.0,-0.011548695852980018,0.12491134204901755,0.027484508231282234,0.0,-0.034642431885004044,-0.16666561365127563,-0.14982610382139683,-0.010589576326310635,-0.031359851360321045,0.011238089296966791,0.13687082659453154,0.033825705759227276,0.0,-0.035062896087765694,-0.002863430804053227,0.10641190637100717,0.009909924951284677,0.0015339807878858025,-0.026077673394055978,-0.1687378866674205,-0.15953400194010658,-0.01760328175253667,-0.05756314039233805,0.004976915445140277,0.1219153388672383,0.024714134915935118,-0.00422696928217365,-0.03702006968097364
21.896323291000044,0.0,0.0,-0.0916297857297023,-0.037088246604879506,0.06326818538479445,-0.05308010212286974,-0.02347773747742315,-0.9983142283878191,1.0,1.0,-0.012959198793396354,0.12347669480368495,0.02988329716026783,0.0,-0.03439672477543354,-0.16897694766521454,-0.15204230323433876,-0.0030335476621985435,-0.024583155289292336,0.01117762504145503,0.1397340539842844,0.034023319371044636,0.0,-0.032009297981858253,-0.004397411591939029,0.10794588715889297,0.011443905739170479,0.0015339807878858025,-0.027611654181941336,-0.1687378866674205,-0.15953400194010658,-0.016069300964650868,-0.051427217240795284,0.004976915445140277,0.1234493196551241,0.02624811570382092,-0.00422696928217365,-0.03702006968097364
21.916603484999996,0.0,0.0,-0.09381144729469522,-0.06435901616729091,0.04254240051736178,-0.05409918224600391,-0.022456264328529926,-0.9982830233319211,1.0,1.0,-0.012148391222581267,0.12382754357531667,0.028377294540405273,0.0,-0.03329218924045563,-0.16804753243923187,-0.15297423489391804,-0.0060246530920267105,-0.0249322559684515,0.012086031958460808,0.13898029923439026,0.035224138759076595,0.0,-0.03436741232872009,-0.004397411591939029,0.10794588715889297,0.011443905739170479,0.0015339807878858025,-0.027611654181941336,-0.1687378866674205,-0.15646604036433542,-0.016069300964650868,-0.04529129408925296,0.004976915445140277,0.1234493196551241,0.027782096491706723,-0.002692988494288291,-0.03702006968097364
21.936576406000086,0.0,0.0,-0.08399397025222712,-0.06326818538479445,-0.009817477042468103,-0.05512038097881216,-0.01939420812217465,-0.9982913443940423,1.0,1.0,-0.009628986706957221,0.12541108205914497,0.03418435528874397,0.0,-0.032888263463974,-0.1686168909072876,-0.15389063395559788,-0.005905847996473312,-0.02170492708683014,0.014294542372226715,0.1423102281987667,0.034666252322494984,0.0,-0.03438102453947067,-0.004397411591939029,0.10794588715889297,0.012977886527055837,0.0015339807878858025,-0.027611654181941336,-0.1687378866674205,-0.15646604036433542,-0.016069300964650868,-0.04222333251348136,0.004976915445140277,0.1234493196551241,0.02931607727959208,-0.002692988494288291,-0.03702006968097364
21.95658288200002,0.0,0.0,-0.09490227807719166,-0.016362461737446838,-0.015271630954950384,-0.05512144348972152,-0.018373814496573836,-0.9983105876471785,1.0,1.0,-0.010244877776131034,0.12490469543263316,0.03289963863790035,0.0,-0.03746718913316727,-0.1608397364616394,-0.15196911245584488,-0.008171819150447845,-0.019619351252913475,0.015286555513739586,0.14015213027596474,0.03440350014716387,0.0,-0.03523611091077328,-0.004397411591939029,0.10794588715889297,0.01451186731494164,0.0015339807878858025,-0.027611654181941336,-0.1687378866674205,-0.15493205957644962,-0.016069300964650868,-0.039155370937710196,0.004976915445140277,0.12498330044300945,0.02931607727959208,-0.002692988494288291,-0.03702006968097364
21.976752911000176,0.0,0.0,-0.09381144729469522,0.003272492347489368,0.014180800172453928,-0.05506727638053279,-0.01631623003867638,-0.9983493254915111,1.0,1.0,-0.00990953459404409,0.126734159886837,0.03420593589544296,0.0,-0.03964126296341419,-0.16266946122050285,-0.1521278414875269,-0.005096760578453541,-0.017778750509023666,0.013849612325429916,0.1407413687556982,0.03522699046880007,0.0,-0.03791063837707043,-0.004397411591939029,0.10947986794677877,0.016045848102827442,0.0015339807878858025,-0.027611654181941336,-0.1687378866674205,-0.15493205957644962,-0.016069300964650868,-0.036087409361939035,0.004976915445140277,0.12651728123089526,0.030850058067477884,-0.002692988494288291,-0.03702006968097364
21.99668651700017,0.0,0.0,-0.0818123086872342,-0.020725784867432664,-0.04254240051736178,-0.0550689944267779,-0.014277146703238715,-0.9983804730336215,1.0,1.0,-0.008243500953540206,0.12639230769127607,0.0369963850826025,0.0,-0.036877669394016266,-0.16362814605236053,-0.15496258251369,-0.008733458817005157,-0.015472449362277985,0.015142550691962242,0.14162112399935722,0.03553881961852312,0.0,-0.03552899695932865,-0.004397411591939029,0.11101384873466413,0.019113809678598603,0.0015339807878858025,-0.027611654181941336,-0.1687378866674205,-0.15493205957644962,-0.016069300964650868,-0.03455342857405323,0.004976915445140277,0.12958524280666642,0.030850058067477884,-0.002692988494288291,-0.03702006968097364
22.01674997400005,0.0,0.0,-0.07417649320975901,-0.006544984694978736,-0.028361600344907856,-0.05405220573661421,-0.014277941137973565,-0.998436026719723,1.0,1.0,-0.008645381545647979,0.12315475067589432,0.033652231097221375,0.0,-0.0375041700899601,-0.16398586332798004,-0.1557903029024601,-0.009054375812411308,-0.01464088074862957,0.01440343912690878,0.13901359401643276,0.033963766880333424,0.0,-0.0343896821141243,-0.004397411591939029,0.11254782952254994,0.020647790466483962,0.0015339807878858025,-0.027611654181941336,-0.1687378866674205,-0.15493205957644962,-0.016069300964650868,-0.033019447786167874,0.004976915445140277,0.12958524280666642,0.03238403885536369,-0.002692988494288291,-0.03702006968097364
22.036929336000185,0.0,0.0,-0.08290313946973066,0.009817477042468103,0.026179938779914945,-0.054054314098718026,-0.011218819907281099,-0.9984749717480179,1.0,1.0,-0.00961939594708383,0.12709563365206122,0.03721710853278637,0.0,-0.04052897077053785,-0.16033798828721046,-0.1536843702197075,-0.005801567807793617,-0.013919511809945107,0.013270427472889423,0.140009805560112,0.03604274522513151,0.0,-0.034848544746637344,-0.004397411591939029,0.11254782952254994,0.022181771254369764,0.0015339807878858025,-0.02914563496982714,-0.1687378866674205,-0.15493205957644962,-0.016069300964650868,-0.03148546699828207,0.004976915445140277,0.12958524280666642,0.03238403885536369,-0.0011590077064024887,-0.03702006968097364
22.05703432900009,0.0,0.0,-0.08072147790473774,-0.003272492347489368,0.017453292519943295,-0.054054314098718026,-0.011218819907281099,-0.9984749717480179,1.0,1.0,-0.007774665718898177,0.12567820074036717,0.039846042171120644,0.0,-0.039157560095191,-0.1645924411714077,-0.1570528857409954,-0.0048836469650268555,-0.011960119009017944,0.014401262626051903,0.14168058522045612,0.036138867028057575,0.0,-0.034219175577163696,-0.004397411591939029,0.11254782952254994,0.023715752042255567,0.0015339807878858025,-0.02914563496982714,-0.1687378866674205,-0.15646604036433542,-0.016069300964650868,-0.02995148621039627,0.004976915445140277,0.12958524280666642,0.03238403885536369,-0.0011590077064024887,-0.03702006968097364
22.077126211000177,0.0,0.0,-0.05999569303730508,-0.008726646259971648,0.02181661564992912,-0.05507228779826721,-0.009178714633044534,-0.9984401806389556,1.0,1.0,-0.007007397478446364,0.1271088868379593,0.039590684697031975,0.0,-0.042071145959198475,-0.1621236726641655,-0.15778776444494724,-0.00376229640096426,-0.012091727927327156,0.01529385894536972,0.14119783230125904,0.03533822391182184,0.0,-0.0330280102789402,-0.004397411591939029,0.11254782952254994,0.026783713618026728,0.0015339807878858025,-0.02914563496982714,-0.1687378866674205,-0.15646604036433542,-0.016069300964650868,-0.02841750542251091,0.004976915445140277,0.12958524280666642,0.03238403885536369,-0.0011590077064024887,-0.03702006968097364
22.097078206000106,0.0,0.0,-0.06435901616729091,0.01090830782496456,0.06326818538479445,-0.05507320431977077,-0.007139119078488804,-0.9984567968343628,1.0,1.0,-0.0081622542347759,0.12644094415009022,0.040593305602669716,0.0,-0.043795802630484104,-0.16132349148392677,-0.1575088817626238,-0.0037238039076328278,-0.010960869491100311,0.01496801432222128,0.1408556681126356,0.03579278755933046,0.0,-0.03419800102710724,-0.004397411591939029,0.11254782952254994,0.02831769440591253,0.0015339807878858025,-0.03067961575771294,-0.1687378866674205,-0.15800002115222123,-0.016069300964650868,-0.02688352463462511,0.004976915445140277,0.12958524280666642,0.03238403885536369,0.0003749730814833138,-0.03702006968097364
22.117158551000102,0.0,0.0,-0.07635815477475191,-0.002181661564992912,0.07417649320975901,-0.055073576669702536,-0.006119286296633615,-0.9984635474007183,1.0,1.0,-0.007345877354964614,0.125637695658952,0.0413785632699728,0.0,-0.041860880330204964,-0.16392207890748978,-0.1595010682940483,-0.002554197795689106,-0.011118529364466667,0.014853470027446747,0.14200061187148094,0.03650557342916727,0.0,-0.03216317668557167,-0.004397411591939029,0.11254782952254994,0.02831769440591253,0.0015339807878858025,-0.03067961575771294,-0.1687378866674205,-0.15800002115222123,-0.016069300964650868,-0.02688352463462511,0.004976915445140277,0.12958524280666642,0.03238403885536369,0.0003749730814833138,-0.03702006968097364
22.137364672000103,0.0,0.0,-0.03381575425739013,-0.008726646259971648,0.003272492347489368,-0.05507389174092838,-0.005099434420456331,-0.9984692595253497,1.0,1.0,-0.006232544546946883,0.12845157459378242,0.040793394669890404,0.0,-0.04239823296666145,-0.16033026948571205,-0.16092300415039062,-0.004560394212603569,-0.008481440134346485,0.015173587948083878,0.139196353033185,0.034069896675646305,0.0,-0.032589683309197426,-0.004397411591939029,0.11254782952254994,0.02831769440591253,0.0015339807878858025,-0.03067961575771294,-0.1687378866674205,-0.15800002115222123,-0.016069300964650868,-0.025349543846739306,0.004976915445140277,0.12958524280666642,0.03238403885536369,0.0003749730814833138,-0.03702006968097364
22.157355667000047,0.0,0.0,-0.018544123302439753,-0.009817477042468103,-0.014180800172453928,-0.056090598982586407,-0.0050991453620533094,-0.9984126618900381,1.0,1.0,-0.0060110127087682486,0.1274895817041397,0.04155105538666248,0.0,-0.04305422678589821,-0.16068680956959724,-0.16239510104060173,-0.005094707012176514,-0.007821200415492058,0.01641835644841194,0.14152267761528492,0.03462884481996298,0.0,-0.03259960748255253,-0.004397411591939029,0.1140818103104353,0.02831769440591253,0.0015339807878858025,-0.03067961575771294,-0.1687378866674205,-0.15800002115222123,-0.016069300964650868,-0.023815563058853947,0.004976915445140277,0.12958524280666642,0.03238403885536369,0.0003749730814833138,-0.03702006968097364
22.177538770000183,0.0,0.0,-0.028361600344907856,-0.018544123302439753,0.017453292519943295,-0.056090861501390456,-0.004079335381919306,-0.9984173347247501,1.0,1.0,-0.006348261376842856,0.12649309821426868,0.04097307659685612,0.0,-0.04210513178259134,-0.1622558832168579,-0.16262425854802132,-0.003998585976660252,-0.007416067644953728,0.015260650776326656,0.14050747640430927,0.034002612344920635,0.0,-0.03163506090641022,-0.004397411591939029,0.1140818103104353,0.02831769440591253,0.003067961575771161,-0.03067961575771294,-0.1687378866674205,-0.15800002115222123,-0.016069300964650868,-0.022281582270968145,0.004976915445140277,0.12958524280666642,0.03238403885536369,0.0003749730814833138,-0.03702006968097364
22.197538468000175,0.0,0.0,-0.026179938779914945,-0.01090830782496456,-0.004363323129985824,-0.056090861501390456,-0.004079335381919306,-0.9984173347247501,1.0,1.0,-0.006533922394737601,0.12725752079859376,0.04140917398035526,0.0,-0.042557742446660995,-0.16074322164058685,-0.16362954676151276,-0.004385408945381641,-0.007322434801608324,0.016384161077439785,0.14092962816357613,0.034431626088917255,0.0,-0.03188987448811531,-0.004397411591939029,0.1140818103104353,0.02831769440591253,0.004601942363656963,-0.0322135965455983,-0.1687378866674205,-0.15800002115222123,-0.016069300964650868,-0.019213620695196984,0.004976915445140277,0.12958524280666642,0.03238403885536369,0.0003749730814833138,-0.03702006968097364
22.217530425000177,0.0,0.0,-0.018544123302439753,-0.007635815477475192,-0.01090830782496456,-0.05609106568523083,-0.0030595126737398633,-0.9984209691971089,1.0,1.0,-0.0051336202304810286,0.12774913292378187,0.0419189278036356,0.0,-0.04222983121871948,-0.16075411066412926,-0.16355103440582752,-0.004575779661536217,-0.005909857805818319,0.01605544611811638,0.14041589386761189,0.03430164884775877,0.0,-0.031932562589645386,-0.004397411591939029,0.1140818103104353,0.02831769440591253,0.007669903939428124,-0.0322135965455983,-0.1687378866674205,-0.15800002115222123,-0.016069300964650868,-0.01767963990731118,0.004976915445140277,0.12958524280666642,0.03238403885536369,0.0003749730814833138,-0.03702006968097364
22.237685918000125,0.0,0.0,-0.032724923474893676,-0.011999138607461015,-0.004363323129985824,-0.05609106568523083,-0.0030595126737398633,-0.9984209691971089,1.0,1.0,-0.007507780333980918,0.12555204518139362,0.041731758043169975,0.0,-0.04160811100155115,-0.16143882274627686,-0.1645416785031557,-0.0042399149388074875,-0.0071477401070296764,0.01717181410640478,0.14180933870375156,0.034523398615419865,0.0,-0.03167404979467392,-0.004397411591939029,0.1140818103104353,0.02831769440591253,0.007669903939428124,-0.0337475773334841,-0.1687378866674205,-0.15800002115222123,-0.016069300964650868,-0.016145659119425823,0.004976915445140277,0.12958524280666642,0.03238403885536369,0.0003749730814833138,-0.03702006968097364
22.257661875000167,0.0,0.0,-0.04363323129985824,-0.01090830782496456,-0.007635815477475192,-0.05609121153219632,-0.0020396804193525933,-0.9984235652730945,1.0,1.0,-0.006233550375327468,0.1275503747165203,0.04193446598947048,0.0,-0.04182664770632982,-0.16059106588363647,-0.1638577114790678,-0.004549459554255009,-0.006801518611609936,0.01567034889012575,0.13970661908388138,0.03421651292592287,0.0,-0.03190477937459946,-0.004397411591939029,0.1156157910983211,0.02831769440591253,0.007669903939428124,-0.0337475773334841,-0.1687378866674205,-0.15800002115222123,-0.016069300964650868,-0.016145659119425823,0.004976915445140277,0.12958524280666642,0.03238403885536369,0.0003749730814833138,-0.03702006968097364
22.27773792400012,0.0,0.0,-0.015271630954950384,-0.006544984694978736,-0.022907446432425576,-0.05609121153219632,-0.0020396804193525933,-0.9984235652730945,1.0,1.0,-0.004304782720282674,0.1273687807843089,0.041988497599959373,0.0,-0.04331984277814627,-0.1613314002752304,-0.16510972194373608,-0.004448365420103073,-0.003734682686626911,0.016151990741491318,0.14021561294794083,0.03254277352243662,0.0,-0.031223177909851074,-0.004397411591939029,0.1156157910983211,0.02831769440591253,0.007669903939428124,-0.0337475773334841,-0.1687378866674205,-0.15800002115222123,-0.016069300964650868,-0.016145659119425823,0.004976915445140277,0.12958524280666642,0.03238403885536369,0.0003749730814833138,-0.03702006968097364
22.297864806000007,0.0,0.0,-0.001090830782496456,-0.01090830782496456,-0.028361600344907856,-0.05609121153219632,-0.0020396804193525933,-0.9984235652730945,1.0,1.0,-0.004603157518431544,0.12921460904181004,0.0417595524340868,0.0,-0.04341455828398466,-0.1601751148700714,-0.16648329608142376,-0.0040377359837293625,-0.0045572202652692795,0.015933694317936897,0.14007271453738213,0.03381287585943937,0.0,-0.031222643330693245,-0.004397411591939029,0.1156157910983211,0.02831769440591253,0.007669903939428124,-0.0337475773334841,-0.1687378866674205,-0.15800002115222123,-0.016069300964650868,-0.016145659119425823,0.004976915445140277,0.12958524280666642,0.03238403885536369,0.0003749730814833138,-0.03702006968097364
22.31827903500016,0.0,0.0,-0.018544123302439753,-0.00545415391248228,-0.006544984694978736,-0.0560912990409217,-0.0010198418007440308,-0.9984251229284064,1.0,1.0,-0.005415415158495307,0.12835409864783287,0.0419143121689558,0.0,-0.04350585211068392,-0.15964999794960022,-0.1653216239064932,-0.003796270117163658,-0.004382055252790451,0.01566022727638483,0.1404465865343809,0.03392172511667013,0.0,-0.031770821660757065,-0.004397411591939029,0.1156157910983211,0.02831769440591253,0.007669903939428124,-0.0337475773334841,-0.1687378866674205,-0.15800002115222123,-0.016069300964650868,-0.016145659119425823,0.004976915445140277,0.12958524280666642,0.03238403885536369,0.0003749730814833138,-0.03702006968097364
22.338102495000157,0.0,0.0,-0.014180800172453928,0.006544984694978736,0.015271630954950384,-0.0560912990409217,-0.0010198418007440308,-0.9984251229284064,1.0,1.0,-0.005563224432989955,0.12919936422258615,0.041498543694615364,0.0,-0.044603568501770496,-0.15962530300021172,-0.16445153020322323,-0.0035252664238214493,-0.00539636192843318,0.015076898969709873,0.13964881375432014,0.033913508988916874,0.0,-0.03184668347239494,-0.004397411591939029,0.1171497718862069,0.02831769440591253,0.009203884727313927,-0.0337475773334841,-0.1687378866674205,-0.15800002115222123,-0.016069300964650868,-0.016145659119425823,0.004976915445140277,0.12958524280666642,0.03238403885536369,0.0003749730814833138,-0.03702006968097364
22.35809076700002,0.0,0.0,-0.007635815477475192,0.004363323129985824,0.011999138607461015,-0.0560912990409217,-0.0010198418007440308,-0.9984251229284064,1.0,1.0,-0.005215511424466968,0.12892104871571064,0.04168025963008404,0.0,-0.04415741190314293,-0.16011107712984085,-0.16492228768765926,-0.0035800887271761894,-0.004912167321890593,0.015382835641503334,0.14003247395157814,0.03394183982163668,0.0,-0.03156732767820358,-0.004397411591939029,0.1171497718862069,0.02831769440591253,0.009203884727313927,-0.0337475773334841,-0.1687378866674205,-0.15800002115222123,-0.016069300964650868,-0.016145659119425823,0.004976915445140277,0.12958524280666642,0.03238403885536369,0.0003749730814833138,-0.03702006968097364
22.378103910000164,0.0,0.0,-0.018544123302439753,0.0,0.02181661564992912,-0.0560912990409217,-0.0010198418007440308,-0.9984251229284064,1.0,1.0,-0.00639989017508924,0.12712074629962444,0.04082474298775196,0.0,-0.04291072487831116,-0.16134687513113022,-0.16561276651918888,-0.003278583288192749,-0.0061440179124474525,0.01508925762027502,0.13947912864387035,0.03341165650635958,0.0,-0.030596647411584854,-0.004397411591939029,0.1171497718862069,0.02831769440591253,0.009203884727313927,-0.0337475773334841,-0.1687378866674205,-0.15800002115222123,-0.016069300964650868,-0.01767963990731118,0.004976915445140277,0.12958524280666642,0.03238403885536369,0.0003749730814833138,-0.03702006968097364
22.39824666100003,0.0,0.0,-0.014180800172453928,-0.004363323129985824,0.007635815477475192,-0.05609132821058785,-0.0,-0.9984256421484637,1.0,1.0,-0.004886288428679109,0.13001676183193922,0.04183030687272549,0.0,-0.04427828826010227,-0.15934070944786072,-0.1656154152005911,-0.0031620562076568604,-0.004783028736710548,0.014698279090225697,0.13910166919231415,0.03337446507066488,0.0,-0.030953388661146164,-0.004397411591939029,0.1171497718862069,0.02831769440591253,0.009203884727313927,-0.0337475773334841,-0.1687378866674205,-0.15800002115222123,-0.016069300964650868,-0.01767963990731118,0.004976915445140277,0.12958524280666642,0.03238403885536369,0.0003749730814833138,-0.03548608889308784
22.418212582000024,0.0,0.0,0.002181661564992912,0.003272492347489368,-0.003272492347489368,-0.05609132821058785,-0.0,-0.9984256421484637,1.0,1.0,-0.005028670420870185,0.12912213802337646,0.041152799502015114,0.0,-0.04468541871756315,-0.15930673852562904,-0.16555422730743885,-0.003994292579591274,-0.005301817785948515,0.01573166251182556,0.14011064730584621,0.03340384643524885,0.0,-0.03231412544846535,-0.004397411591939029,0.1171497718862069,0.02831769440591253,0.009203884727313927,-0.0337475773334841,-0.1687378866674205,-0.15800002115222123,-0.016069300964650868,-0.01767963990731118,0.004976915445140277,0.12958524280666642,0.03238403885536369,0.0019089538693686722,-0.03548608889308784
22.438564386000053,0.0,0.0,-0.00545415391248228,0.001090830782496456,0.01090830782496456,-0.05710787412190886,-0.0,-0.9983680136669424,1.0,1.0,-0.004981287522241473,0.12893966399133205,0.0424360241740942,0.0,-0.04442045837640762,-0.16052324324846268,-0.16531141847372055,-0.0024713845923542976,-0.005044023506343365,0.015117933042347431,0.1408014167100191,0.03343243058770895,0.0,-0.02990853786468506,-0.004397411591939029,0.1171497718862069,0.02831769440591253,0.009203884727313927,-0.0337475773334841,-0.1687378866674205,-0.15800002115222123,-0.016069300964650868,-0.016145659119425823,0.004976915445140277,0.12958524280666642,0.03238403885536369,0.0019089538693686722,-0.03548608889308784
22.45845269700021,0.0,0.0,-0.007635815477475192,-0.004363323129985824,-0.001090830782496456,-0.05710787412190886,-0.0,-0.9983680136669424,1.0,1.0,-0.005237613106146455,0.1289205364882946,0.041757719591259956,0.0,-0.04421565681695938,-0.15958084166049957,-0.16506756283342838,-0.005071679130196571,-0.00609281100332737,0.015741429291665554,0.1400114968419075,0.033671014942228794,0.0,-0.03178626485168934,-0.004397411591939029,0.11868375267409226,0.02831769440591253,0.009203884727313927,-0.0337475773334841,-0.1687378866674205,-0.15800002115222123,-0.016069300964650868,-0.016145659119425823,0.004976915445140277,0.12958524280666642,0.03238403885536369,0.0019089538693686722,-0.03548608889308784
22.47848695100015,0.0,0.0,0.002181661564992912,-0.002181661564992912,-0.013089969389957472,-0.05710787412190886,-0.0,-0.9983680136669424,1.0,1.0,-0.00439586048014462,0.13005995005369186,0.041890135034918785,0.0,-0.044638738967478275,-0.1593918353319168,-0.1663626115769148,-0.004360342398285866,-0.005383716896176338,0.015447927638888359,0.1394687332212925,0.033394272439181805,0.0,-0.03091501072049141,-0.004397411591939029,0.12021773346197806,0.02831769440591253,0.009203884727313927,-0.0337475773334841,-0.1687378866674205,-0.15800002115222123,-0.016069300964650868,-0.016145659119425823,0.004976915445140277,0.12958524280666642,0.03238403885536369,0.0019089538693686722,-0.03548608889308784
22.498759274000122,0.0,0.0,-0.001090830782496456,-0.006544984694978736,-0.01090830782496456,-0.05710787412190886,-0.0,-0.9983680136669424,1.0,1.0,-0.004526154836639762,0.12840351462364197,0.041363270953297615,0.0,-0.043566685169935226,-0.1604570336639881,-0.16690323874354362,-0.004521733149886131,-0.004893800243735313,0.015399294905364513,0.13957813940942287,0.03283687960356474,0.0,-0.030324703082442284,-0.004397411591939029,0.12021773346197806,0.02831769440591253,0.009203884727313927,-0.0337475773334841,-0.1687378866674205,-0.15800002115222123,-0.016069300964650868,-0.016145659119425823,0.004976915445140277,0.12958524280666642,0.03238403885536369,0.0019089538693686722,-0.03548608889308784
22.52096262400005,0.0,0.0,-0.009817477042468103,-0.013089969389957472,-0.014180800172453928,-0.05710787412190886,-0.0,-0.9983680136669424,1.0,1.0,-0.004633854841813445,0.12874125875532627,0.04160064645111561,0.0,-0.04343767371028662,-0.16045023500919342,-0.16688556410372257,-0.004728339612483978,-0.0051889275200665,0.015214758925139904,0.1394661646336317,0.03297160845249891,0.0,-0.030312098562717438,-0.004397411591939029,0.12021773346197806,0.02831769440591253,0.009203884727313927,-0.0337475773334841,-0.1687378866674205,-0.15800002115222123,-0.016069300964650868,-0.016145659119425823,0.004976915445140277,0.12958524280666642,0.03238403885536369,0.0019089538693686722,-0.03548608889308784
22.539285626000037,0.0,0.0,0.002181661564992912,-0.002181661564992912,-0.004363323129985824,-0.05710787412190886,-0.0,-0.9983680136669424,1.0,1.0,-0.0047540434170514345,0.13006843533366919,0.04153294302523136,0.0,-0.04478485509753227,-0.15886721014976501,-0.16649306006729603,-0.004037056118249893,-0.005710396450012922,0.015245851129293442,0.13955738209187984,0.03360524494200945,0.0,-0.03098122961819172,-0.004397411591939029,0.12021773346197806,0.02831769440591253,0.009203884727313927,-0.0337475773334841,-0.1687378866674205,-0.15800002115222123,-0.016069300964650868,-0.016145659119425823,0.004976915445140277,0.12958524280666642,0.03238403885536369,0.0019089538693686722,-0.03548608889308784
22.559143937000044,0.0,0.0,0.003272492347489368,0.001090830782496456,0.01090830782496456,-0.05710787412190886,-0.0,-0.9983680136669424,1.0,1.0,-0.004999849712476134,0.12966855615377426,0.0414737518876791,0.0,-0.04463858250528574,-0.15918973833322525,-0.1663522608578205,-0.0036710239946842194,-0.0056538209319114685,0.015064888633787632,0.13967635296285152,0.03379931394010782,0.0,-0.030969219282269478,-0.004397411591939029,0.12021773346197806,0.02831769440591253,0.009203884727313927,-0.0337475773334841,-0.1687378866674205,-0.15800002115222123,-0.016069300964650868,-0.016145659119425823,0.004976915445140277,0.12958524280666642,0.03238403885536369,0.0019089538693686722,-0.03548608889308784
22.578863490999993,0.0,0.0,-0.001090830782496456,-0.002181661564992912,0.004363323129985824,-0.05710787412190886,-0.0,-0.9983680136669424,1.0,1.0,-0.004903954220935702,0.1297455858439207,0.04163983277976513,0.0,-0.04450655169785023,-0.15921776741743088,-0.16636241227388382,-0.004117334261536598,-0.0056495703756809235,0.015179439447820187,0.13968629017472267,0.03373707178980112,0.0,-0.03102869912981987,-0.004397411591939029,0.12021773346197806,0.02831769440591253,0.009203884727313927,-0.0337475773334841,-0.1687378866674205,-0.15800002115222123,-0.016069300964650868,-0.016145659119425823,0.004976915445140277,0.12958524280666642,0.03238403885536369,0.0019089538693686722,-0.03548608889308784
22.599068890000126,0.0,0.0,0.004363323129985824,0.00545415391248228,0.011999138607461015,-0.05710787412190886,-0.0,-0.9983680136669424,1.0,1.0,-0.004981915233656764,0.12980011478066444,0.04135342873632908,0.0,-0.04500322323292494,-0.15890032052993774,-0.16604303754866123,-0.003723849542438984,-0.005780981853604317,0.015027333982288837,0.13950827345252037,0.033603270538151264,0.0,-0.03107648342847824,-0.004397411591939029,0.12021773346197806,0.02831769440591253,0.009203884727313927,-0.0337475773334841,-0.1687378866674205,-0.15800002115222123,-0.016069300964650868,-0.016145659119425823,0.004976915445140277,0.12958524280666642,0.03238403885536369,0.0019089538693686722,-0.03548608889308784
22.619080718000077,0.0,0.0,0.004363323129985824,0.0,0.011999138607461015,-0.05710787412190886,-0.0,-0.9983680136669424,1.0,1.0,-0.004889575531706214,0.129734568297863,0.04152792505919933,0.0,-0.044557251036167145,-0.15938641130924225,-0.16645504534244537,-0.0037275776267051697,-0.005650972947478294,0.015045944601297379,0.13965648226439953,0.03378461580723524,0.0,-0.03088327869772911,-0.004397411591939029,0.12021773346197806,0.02831769440591253,0.009203884727313927,-0.0337475773334841,-0.1687378866674205,-0.15800002115222123,-0.016069300964650868,-0.016145659119425823,0.004976915445140277,0.12958524280666642,0.03238403885536369,0.0019089538693686722,-0.03548608889308784
22.639151341000115,0.0,0.0,-0.001090830782496456,0.002181661564992912,-0.002181661564992912,-0.05710787412190886,-0.0,-0.9983680136669424,1.0,1.0,-0.004874862963333726,0.12975339777767658,0.041605399921536446,0.0,-0.04476526938378811,-0.15880544483661652,-0.16615679673850536,-0.004459735006093979,-0.00566287524998188,0.015297425910830498,0.13965498842298985,0.03357225935906172,0.0,-0.031190229579806328,-0.004397411591939029,0.12021773346197806,0.02831769440591253,0.009203884727313927,-0.0337475773334841,-0.1687378866674205,-0.15800002115222123,-0.016069300964650868,-0.016145659119425823,0.004976915445140277,0.12958524280666642,0.03238403885536369,0.0019089538693686722,-0.03548608889308784
22.659651809000025,0.0,0.0,0.006544984694978736,0.0,-0.001090830782496456,-0.05710787412190886,-0.0,-0.9983680136669424,1.0,1.0,-0.004603229695931077,0.12984662503004074,0.04161178506910801,0.0,-0.044656479731202126,-0.1591755375266075,-0.16675557009875774,-0.004029389470815659,-0.00551967229694128,0.015269462019205093,0.13962730579078197,0.03358862083405256,0.0,-0.030901044607162476,-0.004397411591939029,0.12021773346197806,0.02831769440591253,0.009203884727313927,-0.0337475773334841,-0.1687378866674205,-0.15800002115222123,-0.016069300964650868,-0.016145659119425823,0.004976915445140277,0.12958524280666642,0.03238403885536369,0.0019089538693686722,-0.03548608889308784
22.679759154000067,0.0,0.0,0.002181661564992912,-0.001090830782496456,-0.006544984694978736,-0.05710787412190886,-0.0,-0.9983680136669424,1.0,1.0,-0.004726416198536754,0.12978216912597418,0.041633350774645805,0.0,-0.04458011407405138,-0.15890294313430786,-0.1667136587202549,-0.004399399273097515,-0.00556939048692584,0.01534206047654152,0.13971095718443394,0.033609299920499325,0.0,-0.031013013795018196,-0.004397411591939029,0.12021773346197806,0.02831769440591253,0.009203884727313927,-0.0337475773334841,-0.1687378866674205,-0.15800002115222123,-0.016069300964650868,-0.016145659119425823,0.004976915445140277,0.12958524280666642,0.03238403885536369,0.0019089538693686722,-0.03548608889308784
22.69980411100005,0.0,0.0,0.004363323129985824,0.0,-0.01090830782496456,-0.05710787412190886,-0.0,-0.9983680136669424,1.0,1.0,-0.004549364792183042,0.12985407188534737,0.041688455268740654,0.0,-0.04468730743974447,-0.15882685780525208,-0.16684167459607124,-0.00448966957628727,-0.00549665279686451,0.015436621382832527,0.13967550545930862,0.03350092377513647,0.0,-0.031021762639284134,-0.004397411591939029,0.12021773346197806,0.02831769440591253,0.009203884727313927,-0.0337475773334841,-0.1687378866674205,-0.15800002115222123,-0.016069300964650868,-0.016145659119425823,0.004976915445140277,0.12958524280666642,0.03238403885536369,0.0019089538693686722,-0.03548608889308784
22.719431611000118,0.0,0.0,0.003272492347489368,0.002181661564992912,-0.003272492347489368,-0.05710787412190886,-0.0,-0.9983680136669424,1.0,1.0,-0.00480878516100347,0.12979639787226915,0.04155482165515423,0.0,-0.04477907996624708,-0.15877854079008102,-0.1665874496102333,-0.004204286262392998,-0.005657610017806292,0.015229553915560246,0.13963305950164795,0.03360713180154562,0.0,-0.031041739508509636,-0.004397411591939029,0.12021773346197806,0.02831769440591253,0.009203884727313927,-0.0337475773334841,-0.1687378866674205,-0.15800002115222123,-0.016069300964650868,-0.016145659119425823,0.004976915445140277,0.12958524280666642,0.03238403885536369,0.0019089538693686722,-0.03548608889308784
22.73955469600014,0.0,0.0,0.004363323129985824,0.001090830782496456,-0.004363323129985824,-0.05710787412190886,-0.0,-0.9983680136669424,1.0,1.0,-0.0046608957927674055,0.1298142997547984,0.041633790358901024,0.0,-0.04470508638769388,-0.15890879184007645,-0.1667058039456606,-0.00431179441511631,-0.005567298270761967,0.015316871926188469,0.13966586627066135,0.033568804152309895,0.0,-0.031007634475827217,-0.004397411591939029,0.12021773346197806,0.02831769440591253,0.009203884727313927,-0.0337475773334841,-0.1687378866674205,-0.15800002115222123,-0.016069300964650868,-0.016145659119425823,0.004976915445140277,0.12958524280666642,0.03238403885536369,0.0019089538693686722,-0.03548608889308784
22.7598543160002,0.0,0.0,0.003272492347489368,0.004363323129985824,0.003272492347489368,-0.05710787412190886,-0.0,-0.9983680136669424,1.0,1.0,-0.004921976709738374,0.1297875875607133,0.04146588779985905,0.0,-0.04490403179079294,-0.1587628833949566,-0.16633331403136253,-0.004046556539833546,-0.005755300633609295,0.01511777751147747,0.13957676477730274,0.03361174184828997,0.0,-0.03107743337750435,-0.004397411591939029,0.12021773346197806,0.02831769440591253,0.009203884727313927,-0.0337475773334841,-0.1687378866674205,-0.15800002115222123,-0.016069300964650868,-0.016145659119425823,0.004976915445140277,0.12958524280666642,0.03238403885536369,0.0019089538693686722,-0.03548608889308784
22.77962203600009,0.0,0.0,0.001090830782496456,0.003272492347489368,0.006544984694978736,-0.05710787412190886,-0.0,-0.9983680136669424,1.0,1.0,-0.004966465523466468,0.12972086388617754,0.04155355133116245,0.0,-0.044778330251574516,-0.1589927040040493,-0.16622211411595345,-0.004037422128021717,-0.005743031855672598,0.015087013132870197,0.13963134214282036,0.03369904961436987,0.0,-0.031073110178112984,-0.004397411591939029,0.12021773346197806,0.02831769440591253,0.009203884727313927,-0.0337475773334841,-0.1687378866674205,-0.15800002115222123,-0.016069300964650868,-0.016145659119425823,0.004976915445140277,0.12958524280666642,0.03238403885536369,0.0019089538693686722,-0.03548608889308784
22.800225039999987,0.0,0.0,0.002181661564992912,0.001090830782496456,0.004363323129985824,-0.05710787412190886,-0.0,-0.9983680136669424,1.0,1.0,-0.00483799516223371,0.1297703692689538,0.041569335386157036,0.0,-0.04471238236874342,-0.1590818166732788,-0.16639385372400284,-0.004065018147230148,-0.005685431882739067,0.015155309811234474,0.13962920755147934,0.03364254627376795,0.0,-0.031016552820801735,-0.004397411591939029,0.12021773346197806,0.02831769440591253,0.009203884727313927,-0.0337475773334841,-0.1687378866674205,-0.15800002115222123,-0.016069300964650868,-0.016145659119425823,0.004976915445140277,0.12958524280666642,0.03238403885536369,0.0019089538693686722,-0.03548608889308784
22.819772098000158,0.0,0.0,0.006544984694978736,0.0,0.007635815477475192,-0.05710787412190886,-0.0,-0.9983680136669424,1.0,1.0,-0.004764933837577701,0.12981952354311943,0.041472094133496284,0.0,-0.04468873795121908,-0.15915582329034805,-0.16668506152927876,-0.003793470561504364,-0.005674391984939575,0.01510009728372097,0.1396066565066576,0.033644731156527996,0.0,-0.03086802549660206,-0.004397411591939029,0.12021773346197806,0.02831769440591253,0.009203884727313927,-0.0337475773334841,-0.1687378866674205,-0.15800002115222123,-0.016069300964650868,-0.016145659119425823,0.004976915445140277,0.12958524280666642,0.03238403885536369,0.0019089538693686722,-0.03548608889308784
22.83981179600005,0.0,0.0,0.0,0.0,0.003272492347489368,-0.05710787412190886,-0.0,-0.9983680136669424,1.0,1.0,-0.004940995713695884,0.12971715908497572,0.04157779552042484,0.0,-0.04463281575590372,-0.1589605063199997,-0.16642865911126137,-0.0041749132797122,-0.005729081574827433,0.015147467143833637,0.13969027437269688,0.03370617050677538,0.0,-0.031042348593473434,-0.004397411591939029,0.12021773346197806,0.02831769440591253,0.009203884727313927,-0.0337475773334841,-0.1687378866674205,-0.15800002115222123,-0.016069300964650868,-0.016145659119425823,0.004976915445140277,0.12958524280666642,0.03238403885536369,0.0019089538693686722,-0.03548608889308784
22.860040972000206,0.0,0.0,0.00545415391248228,-0.002181661564992912,-0.002181661564992912,-0.05710787412190886,-0.0,-0.9983680136669424,1.0,1.0,-0.004564713453873992,0.12984778080135584,0.04164799489080906,0.0,-0.04459095187485218,-0.1591283343732357,-0.16691350378096104,-0.004168849438428879,-0.0055427029728889465,0.015306156128644943,0.13966946117579937,0.03356973733752966,0.0,-0.030896253883838654,-0.004397411591939029,0.12021773346197806,0.02831769440591253,0.009203884727313927,-0.0337475773334841,-0.1687378866674205,-0.15800002115222123,-0.016069300964650868,-0.016145659119425823,0.004976915445140277,0.12958524280666642,0.03238403885536369,0.0019089538693686722,-0.03548608889308784
22.879974043000175,0.0,0.0,0.0,-0.002181661564992912,-0.003272492347489368,-0.05710787412190886,-0.0,-0.9983680136669424,1.0,1.0,-0.004848630400374532,0.12974166497588158,0.041629014536738396,0.0,-0.04454770591109991,-0.1589251607656479,-0.1666950359940529,-0.00428292341530323,-0.005671997554600239,0.01523047685623169,0.13971933349967003,0.033687167800962925,0.0,-0.03100307285785675,-0.004397411591939029,0.12021773346197806,0.02831769440591253,0.009203884727313927,-0.0337475773334841,-0.1687378866674205,-0.15800002115222123,-0.016069300964650868,-0.016145659119425823,0.004976915445140277,0.12958524280666642,0.03238403885536369,0.0019089538693686722,-0.03548608889308784
22.900370161000183,0.0,0.0,-0.002181661564992912,0.001090830782496456,-0.006544984694978736,-0.05710787412190886,-0.0,-0.9983680136669424,1.0,1.0,-0.0048237384762614965,0.1297460626810789,0.04170355759561062,0.0,-0.0447412496432662,-0.15874991193413734,-0.16637826524674892,-0.004542098380625248,-0.00567055307328701,0.01530784834176302,0.139685882255435,0.03358553256839514,0.0,-0.03117998316884041,-0.004397411591939029,0.12021773346197806,0.02831769440591253,0.009203884727313927,-0.0337475773334841,-0.1687378866674205,-0.15800002115222123,-0.016069300964650868,-0.016145659119425823,0.004976915445140277,0.12958524280666642,0.03238403885536369,0.0019089538693686722,-0.03548608889308784
22.920207806999997,0.0,0.0,0.002181661564992912,0.0,-0.004363323129985824,-0.05710787412190886,-0.0,-0.9983680136669424,1.0,1.0,-0.004702751757577062,0.12979215569794178,0.0416665505617857,0.0,-0.04467133618891239,-0.1590026579797268,-0.16664056666195393,-0.00426529161632061,-0.005601915530860424,0.015272866003215313,0.13966084830462933,0.03359937388449907,0.0,-0.031010491773486137,-0.004397411591939029,0.12021773346197806,0.02831769440591253,0.009203884727313927,-0.0337475773334841,-0.1687378866674205,-0.15800002115222123,-0.016069300964650868,-0.016145659119425823,0.004976915445140277,0.12958524280666642,0.03238403885536369,0.0019089538693686722,-0.03548608889308784
22.94016630300007,0.0,0.0,0.001090830782496456,0.002181661564992912,-0.002181661564992912,-0.05710787412190886,-0.0,-0.9983680136669424,1.0,1.0,-0.004847149131819606,0.1297652516514063,0.0415728185325861,0.0,-0.04478605091571808,-0.1587904952466488,-0.16641552932560444,-0.004294632002711296,-0.005698502529412508,0.015218349173665047,0.13964011892676353,0.03359581250697374,0.0,-0.031097877770662308,-0.004397411591939029,0.12021773346197806,0.02831769440591253,0.009203884727313927,-0.0337475773334841,-0.1687378866674205,-0.15800002115222123,-0.016069300964650868,-0.016145659119425823,0.004976915445140277,0.12958524280666642,0.03238403885536369,0.0019089538693686722,-0.03548608889308784
22.960667531000126,0.0,0.0,0.002181661564992912,0.001090830782496456,0.0,-0.05710787412190886,-0.0,-0.9983680136669424,1.0,1.0,-0.004789685131981969,0.1297688139602542,0.04161749966442585,0.0,-0.04470508359372616,-0.1589893102645874,-0.16652335040271282,-0.004176462069153786,-0.005656369961798191,0.015197891741991043,0.13965333625674248,0.033635289408266544,0.0,-0.031024141237139702,-0.004397411591939029,0.12021773346197806,0.02831769440591253,0.009203884727313927,-0.0337475773334841,-0.1687378866674205,-0.15800002115222123,-0.016069300964650868,-0.016145659119425823,0.004976915445140277,0.12958524280666642,0.03238403885536369,0.0019089538693686722,-0.03548608889308784
22.980563361000122,0.0,0.0,-0.003272492347489368,0.0,0.003272492347489368,-0.05710787412190886,-0.0,-0.9983680136669424,1.0,1.0,-0.0050324981566518545,0.1296787243336439,0.04161333478987217,0.0,-0.044636073522269726,-0.15899405628442764,-0.1662486419081688,-0.004161368124186993,-0.005779659375548363,0.01509250607341528,0.13968359492719173,0.033749078400433064,0.0,-0.03110341913998127,-0.004397411591939029,0.12021773346197806,0.02831769440591253,0.009203884727313927,-0.0337475773334841,-0.1687378866674205,-0.15800002115222123,-0.016069300964650868,-0.016145659119425823,0.004976915445140277,0.12958524280666642,0.03238403885536369,0.0019089538693686722,-0.03548608889308784
23.000854222000044,0.0,0.0,0.0,-0.001090830782496456,0.004363323129985824,-0.05710787412190886,-0.0,-0.9983680136669424,1.0,1.0,-0.0048448077868670225,0.1297438470646739,0.04162335954606533,0.0,-0.04463028535246849,-0.15915434062480927,-0.16643276065587997,-0.004060401581227779,-0.005700781475752592,0.015133646316826344,0.13966142013669014,0.0336781432852149,0.0,-0.03101445734500885,-0.004397411591939029,0.12021773346197806,0.02831769440591253,0.009203884727313927,-0.0337475773334841,-0.1687378866674205,-0.15800002115222123,-0.016069300964650868,-0.016145659119425823,0.004976915445140277,0.12958524280666642,0.03238403885536369,0.0019089538693686722,-0.03548608889308784
23.020724422000058,0.0,0.0,-0.001090830782496456,-0.001090830782496456,0.004363323129985824,-0.05710787412190886,-0.0,-0.9983680136669424,1.0,1.0,-0.004937726771458983,0.12971164658665657,0.04158828221261501,0.0,-0.04460825212299824,-0.1590820997953415,-0.16638566367328167,-0.004081642255187035,-0.005743822082877159,0.015103395096957684,0.13967527821660042,0.03371651377528906,0.0,-0.031030355021357536,-0.004397411591939029,0.12021773346197806,0.02831769440591253,0.009203884727313927,-0.0337475773334841,-0.1687378866674205,-0.15800002115222123,-0.016069300964650868,-0.016145659119425823,0.004976915445140277,0.12958524280666642,0.03238403885536369,0.0019089538693686722,-0.03548608889308784
23.040722361999997,0.0,0.0,-0.002181661564992912,0.0,0.001090830782496456,-0.05710787412190886,-0.0,-0.9983680136669424,1.0,1.0,-0.004902253160253167,0.12971229199320078,0.041645439341664314,0.0,-0.044665188528597355,-0.15898644551634789,-0.16629188507795334,-0.004268832504749298,-0.005719950422644615,0.015171846374869347,0.13967863842844963,0.03366704750806093,0.0,-0.0311117023229599,-0.004397411591939029,0.12021773346197806,0.02831769440591253,0.009203884727313927,-0.0337475773334841,-0.1687378866674205,-0.15800002115222123,-0.016069300964650868,-0.016145659119425823,0.004976915445140277,0.12958524280666642,0.03238403885536369,0.0019089538693686722,-0.03548608889308784
23.0611153320001,0.0,0.0,0.0,0.0,-0.001090830782496456,-0.05710787412190886,-0.0,-0.9983680136669424,1.0,1.0,-0.004798202542588115,0.12975115422159433,0.04164827801287174,0.0,-0.044668590649962425,-0.15901722013950348,-0.1664336547255516,-0.004257248714566231,-0.005660734139382839,0.015215618535876274,0.13966531865298748,0.03362765070050955,0.0,-0.031062794849276543,-0.004397411591939029,0.12021773346197806,0.02831769440591253,0.009203884727313927,-0.0337475773334841,-0.1687378866674205,-0.15800002115222123,-0.016069300964650868,-0.016145659119425823,0.004976915445140277,0.12958524280666642,0.03238403885536369,0.0019089538693686722,-0.03548608889308784
23.08112088300004,0.0,0.0,-0.00545415391248228,0.0,-0.002181661564992912,-0.058124242445098354,-0.0,-0.998309357083356,1.0,1.0,-0.00489909783937037,0.12958302907645702,0.04173441044986248,0.0,-0.044673265889286995,-0.15905393660068512,-0.16627522557973862,-0.004256607964634895,-0.005783874541521072,0.015386229380965233,0.13975737802684307,0.03367817122489214,0.0,-0.031161712482571602,-0.004397411591939029,0.12021773346197806,0.02831769440591253,0.009203884727313927,-0.0337475773334841,-0.1687378866674205,-0.15800002115222123,-0.016069300964650868,-0.016145659119425823,0.004976915445140277,0.12958524280666642,0.03238403885536369,0.0019089538693686722,-0.03548608889308784
23.10117606200015,0.0,0.0,-0.002181661564992912,0.001090830782496456,-0.002181661564992912,-0.058124242445098354,-0.0,-0.998309357083356,1.0,1.0,-0.00475847371853888,0.1296712812036276,0.041677361354231834,0.0,-0.044783432967960835,-0.15903981775045395,-0.16633854433894157,-0.004197190515697002,-0.005776786711066961,0.015364221297204494,0.139657499268651,0.03356614429503679,0.0,-0.031125325709581375,-0.004397411591939029,0.12021773346197806,0.02831769440591253,0.009203884727313927,-0.0337475773334841,-0.1687378866674205,-0.15800002115222123,-0.016069300964650868,-0.016145659119425823,0.004976915445140277,0.12958524280666642,0.03238403885536369,0.0019089538693686722,-0.03548608889308784
23.121240853000018,0.0,0.0,-0.003272492347489368,0.001090830782496456,-0.002181661564992912,-0.058124242445098354,-0.0,-0.998309357083356,1.0,1.0,-0.00483161979354918,0.12961180042475462,0.041683876886963844,0.0,-0.0447197649627924,-0.15903622657060623,-0.16630176827311516,-0.004217850044369698,-0.005780412349849939,0.015343739651143551,0.13970843702554703,0.033634026534855366,0.0,-0.03113153949379921,-0.004397411591939029,0.12021773346197806,0.02831769440591253,0.009203884727313927,-0.0337475773334841,-0.1687378866674205,-0.15800002115222123,-0.016069300964650868,-0.016145659119425823,0.004976915445140277,0.12958524280666642,0.03238403885536369,0.0019089538693686722,-0.03548608889308784
23.141490233000013,0.0,0.0,-0.003272492347489368,0.002181661564992912,-0.001090830782496456,-0.058124242445098354,-0.0,-0.998309357083356,1.0,1.0,-0.004832584178075194,0.12963001988828182,0.041660038754343987,0.0,-0.04480373673141003,-0.1589847356081009,-0.16620471328496933,-0.0042041148990392685,-0.005806300323456526,0.015323259867727757,0.13967162743210793,0.03360050264745951,0.0,-0.031175341457128525,-0.004397411591939029,0.12021773346197806,0.02831769440591253,0.009203884727313927,-0.0337475773334841,-0.1687378866674205,-0.15800002115222123,-0.016069300964650868,-0.016145659119425823,0.004976915445140277,0.12958524280666642,0.03238403885536369,0.0019089538693686722,-0.03548608889308784
23.16405885600011,0.0,0.0,-0.003272492347489368,0.001090830782496456,0.001090830782496456,-0.058124242445098354,-0.0,-0.998309357083356,1.0,1.0,-0.004849493270739913,0.12960449792444706,0.04166554473340511,0.0,-0.04471646994352341,-0.15911930054426193,-0.1662476360797882,-0.004097620956599712,-0.005800234619528055,0.015277538448572159,0.13969442062079906,0.03366085793823004,0.0,-0.031123246997594833,-0.004397411591939029,0.12021773346197806,0.02831769440591253,0.009203884727313927,-0.0337475773334841,-0.1687378866674205,-0.15800002115222123,-0.016069300964650868,-0.016145659119425823,0.004976915445140277,0.12958524280666642,0.03238403885536369,0.0019089538693686722,-0.03548608889308784
23.18128039300018,0.0,0.0,-0.004363323129985824,0.0,0.001090830782496456,-0.058124242445098354,-0.0,-0.998309357083356,1.0,1.0,-0.004855936160311103,0.12959530670195818,0.041675617918372154,0.0,-0.04467082489281893,-0.15913311392068863,-0.16624509543180466,-0.004130168817937374,-0.0058081867173314095,0.015278286300599575,0.1397092528641224,0.03366823773831129,0.0,-0.03113471530377865,-0.004397411591939029,0.12021773346197806,0.02831769440591253,0.009203884727313927,-0.0337475773334841,-0.1687378866674205,-0.15800002115222123,-0.016069300964650868,-0.016145659119425823,0.004976915445140277,0.12958524280666642,0.03238403885536369,0.0019089538693686722,-0.03548608889308784
23.2013456640002,0.0,0.0,-0.001090830782496456,-0.001090830782496456,0.002181661564992912,-0.058124242445098354,-0.0,-0.998309357083356,1.0,1.0,-0.00473779090680182,0.129643683321774,0.04164441116154194,0.0,-0.04464446101337671,-0.15922407805919647,-0.16648055613040924,-0.0039878347888588905,-0.005759574007242918,0.015281416475772858,0.1396991703659296,0.03364311624318361,0.0,-0.03103121742606163,-0.004397411591939029,0.12021773346197806,0.02831769440591253,0.009203884727313927,-0.0337475773334841,-0.1687378866674205,-0.15800002115222123,-0.016069300964650868,-0.016145659119425823,0.004976915445140277,0.12958524280666642,0.03238403885536369,0.0019089538693686722,-0.03548608889308784
23.22207094500004,0.0,0.0,-0.001090830782496456,0.001090830782496456,0.0,-0.058124242445098354,-0.0,-0.998309357083356,1.0,1.0,-0.004765167599543929,0.12964350450783968,0.04160766862332821,0.0,-0.044750990346074104,-0.15899205207824707,-0.1663875561207533,-0.004139631986618042,-0.005779621656984091,0.015314439311623573,0.1396886594593525,0.033595613203942776,0.0,-0.03110923245549202,-0.004397411591939029,0.12021773346197806,0.02831769440591253,0.009203884727313927,-0.0337475773334841,-0.1687378866674205,-0.15800002115222123,-0.016069300964650868,-0.016145659119425823,0.004976915445140277,0.12958524280666642,0.03238403885536369,0.0019089538693686722,-0.03548608889308784
23.242258343999993,0.0,0.0,-0.001090830782496456,0.0,0.001090830782496456,-0.06683028013336446,-0.0,-0.9977643577805815,1.0,1.0,-0.0039116323459893465,0.12888676300644875,0.04186965338885784,0.0,-0.04516811482608318,-0.16029220074415207,-0.16735294833779335,-0.002740013413131237,-0.0061509571969509125,0.01715231128036976,0.14008892886340618,0.03331971634179354,0.0,-0.030884653329849243,-0.004397411591939029,0.12021773346197806,0.02831769440591253,0.009203884727313927,-0.0337475773334841,-0.1687378866674205,-0.15800002115222123,-0.016069300964650868,-0.016145659119425823,0.004976915445140277,0.12958524280666642,0.03238403885536369,0.0019089538693686722,-0.03548608889308784
23.262276635000035,0.0,0.0,-0.00545415391248228,-0.001090830782496456,-0.002181661564992912,-0.058124242445098354,-0.0,-0.998309357083356,1.0,1.0,-0.00500420737080276,0.1296964418143034,0.041378797963261604,0.0,-0.04453298728913069,-0.15868888050317764,-0.16633833758533,-0.004292690195143223,-0.006230003200471401,0.01470556017011404,0.13937151432037354,0.033642721362411976,0.0,-0.03106239065527916,-0.004397411591939029,0.12021773346197806,0.02831769440591253,0.009203884727313927,-0.0337475773334841,-0.1687378866674205,-0.15800002115222123,-0.016069300964650868,-0.016145659119425823,0.004976915445140277,0.12958524280666642,0.03238403885536369,0.0019089538693686722,-0.03548608889308784
23.282247464000193,0.0,0.0,-0.00545415391248228,0.002181661564992912,-0.003272492347489368,-0.058124242445098354,-0.0,-0.998309357083356,1.0,1.0,-0.004689777037128806,0.12946442421525717,0.041836267337203026,0.0,-0.044732335954904556,-0.15893670916557312,-0.16617562249302864,-0.004405834712088108,-0.005636629648506641,0.015437997877597809,0.13992460258305073,0.033643472008407116,0.0,-0.03129364177584648,-0.004397411591939029,0.12021773346197806,0.02831769440591253,0.009203884727313927,-0.0337475773334841,-0.1687378866674205,-0.15800002115222123,-0.016069300964650868,-0.016145659119425823,0.004976915445140277,0.12958524280666642,0.03238403885536369,0.0019089538693686722,-0.03548608889308784
23.302350606000118,0.0,0.0,0.002181661564992912,0.002181661564992912,-0.002181661564992912,-0.058124242445098354,-0.0,-0.998309357083356,1.0,1.0,-0.004558308282867074,0.12974481657147408,0.04156150482594967,0.0,-0.04483089968562126,-0.15900832414627075,-0.16651385091245174,-0.004089862108230591,-0.005738229025155306,0.015279388055205345,0.1395755484700203,0.03349800314754248,0.0,-0.031103244051337242,-0.004397411591939029,0.12021773346197806,0.02831769440591253,0.009203884727313927,-0.0337475773334841,-0.1687378866674205,-0.15800002115222123,-0.016069300964650868,-0.016145659119425823,0.004976915445140277,0.12958524280666642,0.03238403885536369,0.0019089538693686722,-0.03548608889308784
23.322617967000042,0.0,0.0,0.001090830782496456,0.001090830782496456,-0.002181661564992912,-0.058124242445098354,-0.0,-0.998309357083356,1.0,1.0,-0.004642394138500094,0.12960714846849442,0.04161963425576687,0.0,-0.04465820454061031,-0.15900709852576256,-0.16658518463373184,-0.004146612249314785,-0.0056706806644797325,0.01532343402504921,0.13976192474365234,0.03362272214144468,0.0,-0.03106195479631424,-0.004397411591939029,0.12021773346197806,0.02831769440591253,0.009203884727313927,-0.0337475773334841,-0.1687378866674205,-0.15800002115222123,-0.016069300964650868,-0.016145659119425823,0.004976915445140277,0.12958524280666642,0.03238403885536369,0.0019089538693686722,-0.03548608889308784
23.34220833900008,0.0,0.0,-0.002181661564992912,0.001090830782496456,0.001090830782496456,-0.058124242445098354,-0.0,-0.998309357083356,1.0,1.0,-0.004786432487890124,0.12961793784052134,0.041604893282055855,0.0,-0.04471801221370697,-0.15897969529032707,-0.16636801324784756,-0.004089112393558025,-0.005801290739327669,0.015225479379296303,0.1396950799971819,0.0336531987413764,0.0,-0.03115098737180233,-0.004397411591939029,0.12021773346197806,0.02831769440591253,0.009203884727313927,-0.0337475773334841,-0.1687378866674205,-0.15800002115222123,-0.016069300964650868,-0.016145659119425823,0.004976915445140277,0.12958524280666642,0.03238403885536369,0.0019089538693686722,-0.03548608889308784
23.362220463000085,0.0,0.0,0.001090830782496456,0.003272492347489368,0.0,-0.058124242445098354,-0.0,-0.998309357083356,1.0,1.0,-0.004655482014641166,0.12965850438922644,0.041587406769394875,0.0,-0.04484006389975548,-0.15893644466996193,-0.16637101210653782,-0.004128101281821728,-0.005722705274820328,0.015313009731471539,0.1396731398999691,0.033545161597430706,0.0,-0.031138643622398376,-0.004397411591939029,0.12021773346197806,0.02831769440591253,0.009203884727313927,-0.0337475773334841,-0.1687378866674205,-0.15800002115222123,-0.016069300964650868,-0.016145659119425823,0.004976915445140277,0.12958524280666642,0.03238403885536369,0.0019089538693686722,-0.03548608889308784
23.382334790000186,0.0,0.0,0.0,0.0,0.001090830782496456,-0.058124242445098354,-0.0,-0.998309357083356,1.0,1.0,-0.004710661945864558,0.12962299026548862,0.041625721380114555,0.0,-0.04461938049644232,-0.15915830060839653,-0.16653624922037125,-0.0040119364857673645,-0.005722288507968187,0.015257211402058601,0.13972137868404388,0.033674982376396656,0.0,-0.031042899936437607,-0.004397411591939029,0.12021773346197806,0.02831769440591253,0.009203884727313927,-0.0337475773334841,-0.1687378866674205,-0.15800002115222123,-0.016069300964650868,-0.016145659119425823,0.004976915445140277,0.12958524280666642,0.03238403885536369,0.0019089538693686722,-0.03548608889308784
23.402321007000182,0.0,0.0,0.0,-0.001090830782496456,0.0,-0.058124242445098354,-0.0,-0.998309357083356,1.0,1.0,-0.004658763529732823,0.1296498365700245,0.0416246373206377,0.0,-0.04462409019470215,-0.15910494700074196,-0.1666053757071495,-0.004072318784892559,-0.005713156424462795,0.015308505855500698,0.13972669653594494,0.03362259175628424,0.0,-0.031048279255628586,-0.004397411591939029,0.12021773346197806,0.02831769440591253,0.009203884727313927,-0.0337475773334841,-0.1687378866674205,-0.15800002115222123,-0.016069300964650868,-0.016145659119425823,0.004976915445140277,0.12958524280666642,0.03238403885536369,0.0019089538693686722,-0.03548608889308784
23.422486055000036,0.0,0.0,0.003272492347489368,-0.001090830782496456,0.0,-0.058124242445098354,-0.0,-0.998309357083356,1.0,1.0,-0.004566933261230588,0.12969692703336477,0.04159006290137768,0.0,-0.04464056808501482,-0.15911784023046494,-0.16680635698139668,-0.0039787376299500465,-0.005673845298588276,0.015323064289987087,0.1397081110626459,0.03359271306544542,0.0,-0.030966632068157196,-0.004397411591939029,0.12021773346197806,0.02831769440591253,0.009203884727313927,-0.0337475773334841,-0.1687378866674205,-0.15800002115222123,-0.016069300964650868,-0.016145659119425823,0.004976915445140277,0.12958524280666642,0.03238403885536369,0.0019089538693686722,-0.03548608889308784
23.44257688200014,0.0,0.0,0.002181661564992912,-0.001090830782496456,-0.001090830782496456,-0.058124242445098354,-0.0,-0.998309357083356,1.0,1.0,-0.0046196558978408575,0.12967372126877308,0.041598616167902946,0.0,-0.04462046455591917,-0.15904083102941513,-0.16679756343364716,-0.004060245119035244,-0.005692898295819759,0.015329834073781967,0.1397319696843624,0.033616974018514156,0.0,-0.030994141474366188,-0.004397411591939029,0.12021773346197806,0.02831769440591253,0.009203884727313927,-0.0337475773334841,-0.1687378866674205,-0.15800002115222123,-0.016069300964650868,-0.016145659119425823,0.004976915445140277,0.12958524280666642,0.03238403885536369,0.0019089538693686722,-0.03548608889308784
23.46262033900007,0.0,0.0,0.006544984694978736,-0.002181661564992912,0.001090830782496456,-0.058124242445098354,-0.0,-0.998309357083356,1.0,1.0,-0.004476554924622178,0.12974578328430653,0.041555481031537056,0.0,-0.04460738319903612,-0.15916534885764122,-0.16709385998547077,-0.003846297971904278,-0.005641643889248371,0.015325500629842281,0.1397057306021452,0.03358594421297312,0.0,-0.030857766047120094,-0.004397411591939029,0.12021773346197806,0.02831769440591253,0.009203884727313927,-0.0337475773334841,-0.1687378866674205,-0.15800002115222123,-0.016069300964650868,-0.016145659119425823,0.004976915445140277,0.12958524280666642,0.03238403885536369,0.0019089538693686722,-0.03548608889308784
23.482782610000186,0.0,0.0,0.004363323129985824,0.0,0.0,-0.058124242445098354,-0.0,-0.998309357083356,1.0,1.0,-0.004617584636434913,0.1297041540965438,0.041525838896632195,0.0,-0.044697634875774384,-0.15891534835100174,-0.16687713004648685,-0.004016539081931114,-0.0057153902016580105,0.015322655439376831,0.13970960676670074,0.03358685877174139,0.0,-0.0309729166328907,-0.004397411591939029,0.12021773346197806,0.02831769440591253,0.009203884727313927,-0.0337475773334841,-0.1687378866674205,-0.15800002115222123,-0.016069300964650868,-0.016145659119425823,0.004976915445140277,0.12958524280666642,0.03238403885536369,0.0019089538693686722,-0.03548608889308784
23.502761142000054,0.0,0.0,0.003272492347489368,0.0,-0.001090830782496456,-0.058124242445098354,-0.0,-0.998309357083356,1.0,1.0,-0.0045987332705408335,0.12969482876360416,0.04160701297223568,0.0,-0.04467910621315241,-0.15899242088198662,-0.16683333925902843,-0.004064341075718403,-0.005689189303666353,0.015344275161623955,0.13971889205276966,0.03359893802553415,0.0,-0.030993854627013206,-0.004397411591939029,0.12021773346197806,0.02831769440591253,0.009203884727313927,-0.0337475773334841,-0.1687378866674205,-0.15800002115222123,-0.016069300964650868,-0.016145659119425823,0.004976915445140277,0.12958524280666642,0.03238403885536369,0.0019089538693686722,-0.03548608889308784
23.522795618000146,0.0,0.0,0.00545415391248228,-0.001090830782496456,0.0,-0.058124242445098354,-0.0,-0.998309357083356,1.0,1.0,-0.004533218452706933,0.1297321617603302,0.04156435839831829,0.0,-0.04465203359723091,-0.15908241271972656,-0.16699085757136345,-0.00393297616392374,-0.005667034070938826,0.015338943339884281,0.13970263488590717,0.03358281310647726,0.0,-0.03090774081647396,-0.004397411591939029,0.12021773346197806,0.02831769440591253,0.009203884727313927,-0.0337475773334841,-0.1687378866674205,-0.15800002115222123,-0.016069300964650868,-0.016145659119425823,0.004976915445140277,0.12958524280666642,0.03238403885536369,0.0019089538693686722,-0.03548608889308784
23.542929833000017,0.0,0.0,-0.001090830782496456,-0.001090830782496456,0.0,-0.058124242445098354,-0.0,-0.998309357083356,1.0,1.0,-0.004783707903698087,0.12962000723928213,0.04162033088505268,0.0,-0.0446044048294425,-0.15898637473583221,-0.16665102168917656,-0.004101019352674484,-0.005775513593107462,0.015284046530723572,0.13975336216390133,0.03368822950869799,0.0,-0.03105033002793789,-0.004397411591939029,0.12021773346197806,0.02831769440591253,0.009203884727313927,-0.0337475773334841,-0.1687378866674205,-0.15800002115222123,-0.016069300964650868,-0.016145659119425823,0.004976915445140277,0.12958524280666642,0.03238403885536369,0.0019089538693686722,-0.03548608889308784
23.562930125000094,0.0,0.0,-0.001090830782496456,0.0,0.003272492347489368,-0.058124242445098354,-0.0,-0.998309357083356,1.0,1.0,-0.004677849123254418,0.12971090991050005,0.04171943850815296,0.0,-0.044740671291947365,-0.15917087346315384,-0.166498601436615,-0.004044489003717899,-0.005901531782001257,0.015229771845042706,0.13964976742863655,0.0336924409493804,0.0,-0.030988318845629692,-0.004397411591939029,0.12021773346197806,0.02831769440591253,0.010737865515199285,-0.0337475773334841,-0.1687378866674205,-0.15800002115222123,-0.016069300964650868,-0.016145659119425823,0.004976915445140277,0.12958524280666642,0.03238403885536369,0.0019089538693686722,-0.03548608889308784
23.583233282000037,0.0,0.0,-0.002181661564992912,0.0,0.0,-0.058124242445098354,-0.0,-0.998309357083356,1.0,1.0,-0.005388795165345073,0.12903209868818521,0.04127711243927479,0.0,-0.04413418471813202,-0.15927192568778992,-0.1674042921513319,-0.003860456869006157,-0.006593548692762852,0.015566542744636536,0.13962607644498348,0.0337913790717721,0.0,-0.03054775670170784,-0.004397411591939029,0.12021773346197806,0.02831769440591253,0.010737865515199285,-0.0337475773334841,-0.1687378866674205,-0.15800002115222123,-0.016069300964650868,-0.016145659119425823,0.004976915445140277,0.12958524280666642,0.03238403885536369,0.0019089538693686722,-0.03548608889308784
23.603134167000007,0.0,0.0,0.006544984694978736,0.001090830782496456,0.003272492347489368,-0.058124242445098354,-0.0,-0.998309357083356,1.0,1.0,-0.004252738552168012,0.1299060359597206,0.04169319011271,0.0,-0.04499862249940634,-0.15887261927127838,-0.16690476424992085,-0.003969046287238598,-0.005871876608580351,0.015228315256536007,0.13956018164753914,0.03342784475535154,0.0,-0.030908705666661263,-0.004397411591939029,0.12021773346197806,0.02831769440591253,0.010737865515199285,-0.0337475773334841,-0.1687378866674205,-0.15800002115222123,-0.016069300964650868,-0.016145659119425823,0.004976915445140277,0.12958524280666642,0.03238403885536369,0.0019089538693686722,-0.03548608889308784
23.623130570000058,0.0,0.0,0.004363323129985824,0.001090830782496456,0.002181661564992912,-0.058124242445098354,-0.0,-0.998309357083356,1.0,1.0,-0.004654038464650512,0.12970061972737312,0.04159366525709629,0.0,-0.04472332075238228,-0.15910616144537926,-0.16682035848498344,-0.003956492058932781,-0.0058523425832390785,0.01528023462742567,0.13968758843839169,0.033708187751471996,0.0,-0.03086351603269577,-0.004397411591939029,0.12021773346197806,0.02831769440591253,0.010737865515199285,-0.0337475773334841,-0.1687378866674205,-0.15800002115222123,-0.016069300964650868,-0.016145659119425823,0.004976915445140277,0.12958524280666642,0.03238403885536369,0.0019089538693686722,-0.03548608889308784
23.64324921100001,0.0,0.0,0.003272492347489368,-0.002181661564992912,0.001090830782496456,-0.058124242445098354,-0.0,-0.998309357083356,1.0,1.0,-0.004502774914726615,0.12975971214473248,0.04169443063437939,0.0,-0.04463779740035534,-0.15922704711556435,-0.1669472325593233,-0.004020051099359989,-0.005818410310894251,0.01531236246228218,0.13968012668192387,0.03364260960370302,0.0,-0.030847443267703056,-0.004397411591939029,0.12021773346197806,0.02831769440591253,0.010737865515199285,-0.0337475773334841,-0.1687378866674205,-0.15800002115222123,-0.016069300964650868,-0.016145659119425823,0.004976915445140277,0.12958524280666642,0.03238403885536369,0.0019089538693686722,-0.03548608889308784
23.663273502000038,0.0,0.0,0.002181661564992912,-0.002181661564992912,-0.001090830782496456,-0.058124242445098354,-0.0,-0.998309357083356,1.0,1.0,-0.004550495417788625,0.12973790243268013,0.041689129546284676,0.0,-0.044648781418800354,-0.15913572162389755,-0.16691836714744568,-0.004097757861018181,-0.005836951546370983,0.015337269753217697,0.13969688303768635,0.03364139515906572,0.0,-0.030870087444782257,-0.004397411591939029,0.12021773346197806,0.02831769440591253,0.010737865515199285,-0.0337475773334841,-0.1687378866674205,-0.15800002115222123,-0.016069300964650868,-0.016145659119425823,0.004976915445140277,0.12958524280666642,0.03238403885536369,0.0019089538693686722,-0.03548608889308784
23.684073837000142,0.0,0.0,0.0,0.0,-0.001090830782496456,-0.058124242445098354,-0.0,-0.998309357083356,1.0,1.0,-0.004645156441256404,0.12971217278391123,0.04169628955423832,0.0,-0.044758993200957775,-0.15901252999901772,-0.16666635498404503,-0.004178902134299278,-0.005900021642446518,0.015309208072721958,0.13967141136527061,0.03363452944904566,0.0,-0.030978547409176826,-0.004397411591939029,0.12021773346197806,0.02831769440591253,0.010737865515199285,-0.0337475773334841,-0.1687378866674205,-0.15800002115222123,-0.016069300964650868,-0.016145659119425823,0.004976915445140277,0.12958524280666642,0.03238403885536369,0.0019089538693686722,-0.03548608889308784
23.703506396000193,0.0,0.0,0.002181661564992912,-0.002181661564992912,-0.002181661564992912,-0.058124242445098354,-0.0,-0.998309357083356,1.0,1.0,-0.004490876337513328,0.12974235508590937,0.0417496282607317,0.0,-0.04463869612663984,-0.15922809392213821,-0.1669281329959631,-0.004126381129026413,-0.005804280750453472,0.01535926852375269,0.139695156365633,0.033630226738750935,0.0,-0.03086378611624241,-0.004397411591939029,0.12021773346197806,0.02831769440591253,0.010737865515199285,-0.0337475773334841,-0.1687378866674205,-0.15800002115222123,-0.016069300964650868,-0.016145659119425823,0.004976915445140277,0.12958524280666642,0.03238403885536369,0.0019089538693686722,-0.03548608889308784
23.723510428000054,0.0,0.0,0.001090830782496456,0.0,-0.001090830782496456,-0.058124242445098354,-0.0,-0.998309357083356,1.0,1.0,-0.004625139059498906,0.12973174545913935,0.04165763594210148,0.0,-0.044778699055314064,-0.15899904072284698,-0.16672086343169212,-0.00414339080452919,-0.005906286649405956,0.015306636691093445,0.13965523429214954,0.033610437996685505,0.0,-0.03094978630542755,-0.004397411591939029,0.12021773346197806,0.02831769440591253,0.010737865515199285,-0.0337475773334841,-0.1687378866674205,-0.15800002115222123,-0.016069300964650868,-0.016145659119425823,0.004976915445140277,0.12958524280666642,0.03238403885536369,0.0019089538693686722,-0.03548608889308784
23.743628440000066,0.0,0.0,-0.002181661564992912,-0.003272492347489368,-0.002181661564992912,-0.058124242445098354,-0.0,-0.998309357083356,1.0,1.0,-0.004633332369849086,0.12966424319893122,0.04181724227964878,0.0,-0.04454306047409773,-0.15924883633852005,-0.16678756847977638,-0.004213242791593075,-0.005860990844666958,0.015319750644266605,0.13974636234343052,0.033723010681569576,0.0,-0.030922483652830124,-0.004397411591939029,0.12021773346197806,0.02831769440591253,0.010737865515199285,-0.0337475773334841,-0.1687378866674205,-0.15800002115222123,-0.016069300964650868,-0.016145659119425823,0.004976915445140277,0.12958524280666642,0.03238403885536369,0.0019089538693686722,-0.03548608889308784
23.763604730999987,0.0,0.0,-0.003272492347489368,-0.002181661564992912,0.001090830782496456,-0.058124242445098354,-0.0,-0.998309357083356,1.0,1.0,-0.00473173544742167,0.12967703957110643,0.041721200570464134,0.0,-0.0446819169446826,-0.15913916379213333,-0.1665761899203062,-0.004112393595278263,-0.005966477561742067,0.01524390373378992,0.13968117907643318,0.03368744533509016,0.0,-0.03098418563604355,-0.004397411591939029,0.12021773346197806,0.02831769440591253,0.010737865515199285,-0.0337475773334841,-0.1687378866674205,-0.15800002115222123,-0.016069300964650868,-0.016145659119425823,0.004976915445140277,0.12958524280666642,0.03238403885536369,0.0019089538693686722,-0.03548608889308784
23.78372685400018,0.0,0.0,-0.001090830782496456,-0.001090830782496456,0.0,-0.058124242445098354,-0.0,-0.998309357083356,1.0,1.0,-0.004627128364518285,0.1296917349100113,0.04174264334142208,0.0,-0.04470883309841156,-0.15916503220796585,-0.1666241679340601,-0.004164954647421837,-0.005898607894778252,0.015297666192054749,0.13968262635171413,0.03364350739866495,0.0,-0.030961167067289352,-0.004397411591939029,0.12021773346197806,0.02831769440591253,0.010737865515199285,-0.0337475773334841,-0.1687378866674205,-0.15800002115222123,-0.016069300964650868,-0.016145659119425823,0.004976915445140277,0.12958524280666642,0.03238403885536369,0.0019089538693686722,-0.03548608889308784
23.803814589000012,0.0,0.0,-0.002181661564992912,0.0,-0.001090830782496456,-0.058124242445098354,-0.0,-0.998309357083356,1.0,1.0,-0.004690804285928607,0.12967980653047562,0.04172843135893345,0.0,-0.04475141689181328,-0.1590697206556797,-0.16651195473968983,-0.004227935336530209,-0.0059318458661437035,0.015289303846657276,0.13967130705714226,0.033644513227045536,0.0,-0.031015438959002495,-0.004397411591939029,0.12021773346197806,0.02831769440591253,0.010737865515199285,-0.0337475773334841,-0.1687378866674205,-0.15800002115222123,-0.016069300964650868,-0.016145659119425823,0.004976915445140277,0.12958524280666642,0.03238403885536369,0.0019089538693686722,-0.03548608889308784
23.823816566000005,0.0,0.0,-0.002181661564992912,-0.001090830782496456,-0.001090830782496456,-0.058124242445098354,-0.0,-0.998309357083356,1.0,1.0,-0.004655186785385013,0.12967536970973015,0.04176918603479862,0.0,-0.0446847639977932,-0.15917843580245972,-0.16658274084329605,-0.004200459457933903,-0.005901165306568146,0.015294774435460567,0.13969109393656254,0.03366607706993818,0.0,-0.030980894342064857,-0.004397411591939029,0.12021773346197806,0.02831769440591253,0.010737865515199285,-0.0337475773334841,-0.1687378866674205,-0.15800002115222123,-0.016069300964650868,-0.016145659119425823,0.004976915445140277,0.12958524280666642,0.03238403885536369,0.0019089538693686722,-0.03548608889308784
23.844012595000095,0.0,0.0,0.001090830782496456,0.0,0.0,-0.058124242445098354,-0.0,-0.998309357083356,1.0,1.0,-0.004586722934618592,0.12973349820822477,0.04167979396879673,0.0,-0.04478686582297087,-0.1591091752052307,-0.16666669957339764,-0.004107753746211529,-0.0058980644680559635,0.015295088291168213,0.13964096829295158,0.03359470050781965,0.0,-0.030942339450120926,-0.004397411591939029,0.12021773346197806,0.02831769440591253,0.010737865515199285,-0.0337475773334841,-0.1687378866674205,-0.15800002115222123,-0.016069300964650868,-0.016145659119425823,0.004976915445140277,0.12958524280666642,0.03238403885536369,0.0019089538693686722,-0.03548608889308784
23.863980425000136,0.0,0.0,-0.003272492347489368,0.0,0.001090830782496456,-0.058124242445098354,-0.0,-0.998309357083356,1.0,1.0,-0.004781842464581132,0.12963834311813116,0.04172546602785587,0.0,-0.04471483826637268,-0.15909702703356743,-0.16645167581737041,-0.004174728877842426,-0.0059693362563848495,0.015230100601911545,0.13969026505947113,0.033712214790284634,0.0,-0.031016869470477104,-0.004397411591939029,0.12021773346197806,0.02831769440591253,0.010737865515199285,-0.0337475773334841,-0.1687378866674205,-0.15800002115222123,-0.016069300964650868,-0.016145659119425823,0.004976915445140277,0.12958524280666642,0.03238403885536369,0.0019089538693686722,-0.03548608889308784
23.884054234000132,0.0,0.0,0.0,0.0,0.0,-0.058124242445098354,-0.0,-0.998309357083356,1.0,1.0,-0.004586722468957305,0.12972123827785254,0.04172586835920811,0.0,-0.04477761499583721,-0.15914759412407875,-0.16659796983003616,-0.004157263785600662,-0.005891659762710333,0.015306549146771431,0.13965034671127796,0.033599100075662136,0.0,-0.030971519649028778,-0.004397411591939029,0.12021773346197806,0.02831769440591253,0.010737865515199285,-0.0337475773334841,-0.1687378866674205,-0.15800002115222123,-0.016069300964650868,-0.016145659119425823,0.004976915445140277,0.12958524280666642,0.03238403885536369,0.0019089538693686722,-0.03548608889308784
23.904156228000147,0.0,0.0,0.002181661564992912,0.0,0.0,-0.058124242445098354,-0.0,-0.998309357083356,1.0,1.0,-0.004574248334392905,0.12973288353532553,0.041670890524983406,0.0,-0.044759162701666355,-0.1591302901506424,-0.16674120165407658,-0.0040846094489097595,-0.005880764685571194,0.015294983983039856,0.1396498028188944,0.033609758131206036,0.0,-0.030904000625014305,-0.004397411591939029,0.12021773346197806,0.02831769440591253,0.010737865515199285,-0.0337475773334841,-0.1687378866674205,-0.15800002115222123,-0.016069300964650868,-0.016145659119425823,0.004976915445140277,0.12958524280666642,0.03238403885536369,0.0019089538693686722,-0.03548608889308784
23.924161464000008,0.0,0.0,-0.003272492347489368,0.001090830782496456,0.0,-0.058124242445098354,-0.0,-0.998309357083356,1.0,1.0,-0.0047843672800809145,0.12964871153235435,0.041715240105986595,0.0,-0.04478061106055975,-0.15899326652288437,-0.1663999017328024,-0.004245632328093052,-0.005977953784167767,0.015252853743731976,0.13967699371278286,0.033677530474960804,0.0,-0.031058913096785545,-0.004397411591939029,0.12021773346197806,0.02831769440591253,0.010737865515199285,-0.0337475773334841,-0.1687378866674205,-0.15800002115222123,-0.016069300964650868,-0.016145659119425823,0.004976915445140277,0.12958524280666642,0.03238403885536369,0.0019089538693686722,-0.03548608889308784
23.944418937000137,0.0,0.0,0.001090830782496456,0.0,-0.001090830782496456,-0.058124242445098354,-0.0,-0.998309357083356,1.0,1.0,-0.00453367386944592,0.12973584793508053,0.041742390021681786,0.0,-0.044767698273062706,-0.1591760292649269,-0.16667949222028255,-0.004159947857260704,-0.005855070427060127,0.015333319082856178,0.1396522093564272,0.033588760532438755,0.0,-0.030942946672439575,-0.004397411591939029,0.12021773346197806,0.02831769440591253,0.010737865515199285,-0.0337475773334841,-0.1687378866674205,-0.15800002115222123,-0.016069300964650868,-0.016145659119425823,0.004976915445140277,0.12958524280666642,0.03238403885536369,0.0019089538693686722,-0.03548608889308784
23.96437628500007,0.0,0.0,0.003272492347489368,0.002181661564992912,0.0,-0.058124242445098354,-0.0,-0.998309357083356,1.0,1.0,-0.004588332725688815,0.12975467462092638,0.041611289605498314,0.0,-0.044886921532452106,-0.158986896276474,-0.1666601337492466,-0.004094425588846207,-0.005906314589083195,0.015293843112885952,0.13960854709148407,0.033559312112629414,0.0,-0.030941832810640335,-0.004397411591939029,0.12021773346197806,0.02831769440591253,0.010737865515199285,-0.0337475773334841,-0.1687378866674205,-0.15800002115222123,-0.016069300964650868,-0.016145659119425823,0.004976915445140277,0.12958524280666642,0.03238403885536369,0.0019089538693686722,-0.03548608889308784
23.984364355000025,0.0,0.0,0.004363323129985824,0.0,-0.002181661564992912,-0.058124242445098354,-0.0,-0.998309357083356,1.0,1.0,-0.004469974199309945,0.12976014707237482,0.04170331917703152,0.0,-0.04473324306309223,-0.15913141518831253,-0.1669293362647295,-0.004143965430557728,-0.005811579525470734,0.01536041870713234,0.13966871052980423,0.03358867298811674,0.0,-0.03086131252348423,-0.004397411591939029,0.12021773346197806,0.02831769440591253,0.010737865515199285,-0.0337475773334841,-0.1687378866674205,-0.15800002115222123,-0.016069300964650868,-0.016145659119425823,0.004976915445140277,0.12958524280666642,0.03238403885536369,0.0019089538693686722,-0.03548608889308784
24.004662865,0.0,0.0,0.0,0.0,0.001090830782496456,-0.058124242445098354,-0.0,-0.998309357083356,1.0,1.0,-0.0047132091131061316,0.12970130145549774,0.041660020127892494,0.0,-0.04475563392043114,-0.1590348668396473,-0.16667166724801064,-0.004084314219653606,-0.005957665853202343,0.015243484638631344,0.13966296426951885,0.03367029037326574,0.0,-0.03094758838415146,-0.004397411591939029,0.12021773346197806,0.02831769440591253,0.010737865515199285,-0.0337475773334841,-0.1687378866674205,-0.15800002115222123,-0.016069300964650868,-0.016145659119425823,0.004976915445140277,0.12958524280666642,0.03238403885536369,0.0019089538693686722,-0.03548608889308784
24.02462689800018,0.0,0.0,0.002181661564992912,0.001090830782496456,-0.001090830782496456,-0.058124242445098354,-0.0,-0.998309357083356,1.0,1.0,-0.004545358242467046,0.12974756862968206,0.04170041345059872,0.0,-0.04483069572597742,-0.15903759002685547,-0.16670849546790123,-0.004191039130091667,-0.0058729141019284725,0.015344043262302876,0.13964582048356533,0.03356512542814016,0.0,-0.030952420085668564,-0.004397411591939029,0.12021773346197806,0.02831769440591253,0.010737865515199285,-0.0337475773334841,-0.1687378866674205,-0.15800002115222123,-0.016069300964650868,-0.016145659119425823,0.004976915445140277,0.12958524280666642,0.03238403885536369,0.0019089538693686722,-0.03548608889308784
24.04471374400009,0.0,0.0,0.003272492347489368,0.0,0.0,-0.058124242445098354,-0.0,-0.998309357083356,1.0,1.0,-0.004562093643471599,0.1297493390738964,0.04166583530604839,0.0,-0.04475637897849083,-0.15912547707557678,-0.16684100404381752,-0.0040506841614842415,-0.005876006558537483,0.015297617763280869,0.13964778371155262,0.033616711385548115,0.0,-0.03087049536406994,-0.004397411591939029,0.12021773346197806,0.02831769440591253,0.010737865515199285,-0.0337475773334841,-0.1687378866674205,-0.15800002115222123,-0.016069300964650868,-0.016145659119425823,0.004976915445140277,0.12958524280666642,0.03238403885536369,0.0019089538693686722,-0.03548608889308784
24.064769276000106,0.0,0.0,0.001090830782496456,-0.002181661564992912,0.0,-0.058124242445098354,-0.0,-0.998309357083356,1.0,1.0,-0.004601182648912072,0.12971497513353825,0.04171340353786945,0.0,-0.04464046098291874,-0.15917713940143585,-0.1668807454407215,-0.004096191376447678,-0.005885800812393427,0.015297719277441502,0.1396995559334755,0.03366947639733553,0.0,-0.030870312824845314,-0.004397411591939029,0.12021773346197806,0.02831769440591253,0.010737865515199285,-0.0337475773334841,-0.1687378866674205,-0.15800002115222123,-0.016069300964650868,-0.016145659119425823,0.004976915445140277,0.12958524280666642,0.03238403885536369,0.0019089538693686722,-0.03548608889308784
24.084848881000198,0.0,0.0,0.004363323129985824,-0.001090830782496456,0.0,-0.058124242445098354,-0.0,-0.998309357083356,1.0,1.0,-0.004488873528316617,0.12978630885481834,0.04165265150368214,0.0,-0.044760243967175484,-0.15910115092992783,-0.16697738133370876,-0.004042791202664375,-0.005865173414349556,0.015326123684644699,0.13964486122131348,0.03357179928570986,0.0,-0.030842164531350136,-0.004397411591939029,0.12021773346197806,0.02831769440591253,0.010737865515199285,-0.0337475773334841,-0.1687378866674205,-0.15800002115222123,-0.016069300964650868,-0.016145659119425823,0.004976915445140277,0.12958524280666642,0.03238403885536369,0.0019089538693686722,-0.03548608889308784
24.105634531000078,0.0,0.0,0.002181661564992912,0.0,-0.002181661564992912,-0.058124242445098354,-0.0,-0.998309357083356,1.0,1.0,-0.004582932451739907,0.12973339948803186,0.041687240824103355,0.0,-0.04475581552833319,-0.15899687632918358,-0.1668490394949913,-0.004198403097689152,-0.005885584745556116,0.015336709097027779,0.13967667147517204,0.03361056465655565,0.0,-0.030913393944501877,-0.004397411591939029,0.12021773346197806,0.02831769440591253,0.010737865515199285,-0.0337475773334841,-0.1687378866674205,-0.15800002115222123,-0.016069300964650868,-0.016145659119425823,0.004976915445140277,0.12958524280666642,0.03238403885536369,0.0019089538693686722,-0.03548608889308784
24.125363160999996,0.0,0.0,0.00545415391248228,-0.001090830782496456,0.002181661564992912,-0.058124242445098354,-0.0,-0.998309357083356,1.0,1.0,-0.0044979306403547525,0.12978722248226404,0.04163767956197262,0.0,-0.04474180191755295,-0.15917879715561867,-0.16704116761684418,-0.00390674639493227,-0.00587072130292654,0.015275574289262295,0.1396391298621893,0.03361181262880564,0.0,-0.03079131431877613,-0.004397411591939029,0.12021773346197806,0.02831769440591253,0.010737865515199285,-0.0337475773334841,-0.1687378866674205,-0.15800002115222123,-0.016069300964650868,-0.016145659119425823,0.004976915445140277,0.12958524280666642,0.03238403885536369,0.0019089538693686722,-0.03548608889308784
24.14541919200019,0.0,0.0,0.003272492347489368,0.003272492347489368,-0.001090830782496456,-0.058124242445098354,-0.0,-0.998309357083356,1.0,1.0,-0.0046139967162162066,0.12975522316992283,0.04160584323108196,0.0,-0.044946229085326195,-0.15879900008440018,-0.166670773178339,-0.00423001404851675,-0.005931896157562733,0.015330814756453037,0.13962078839540482,0.03353557828813791,0.0,-0.03098546341061592,-0.004397411591939029,0.12021773346197806,0.02831769440591253,0.010737865515199285,-0.0337475773334841,-0.1687378866674205,-0.15800002115222123,-0.016069300964650868,-0.016145659119425823,0.004976915445140277,0.12958524280666642,0.03238403885536369,0.0019089538693686722,-0.03548608889308784
24.165313004000154,0.0,0.0,0.003272492347489368,0.001090830782496456,-0.001090830782496456,-0.058124242445098354,-0.0,-0.998309357083356,1.0,1.0,-0.004549643257632852,0.12974634021520615,0.04171282984316349,0.0,-0.044786231592297554,-0.15909849107265472,-0.16682040691375732,-0.004122881218791008,-0.005860631819814444,0.01532362774014473,0.13965311646461487,0.03361321147531271,0.0,-0.03089568205177784,-0.004397411591939029,0.12021773346197806,0.02831769440591253,0.010737865515199285,-0.0337475773334841,-0.1687378866674205,-0.15800002115222123,-0.016069300964650868,-0.016145659119425823,0.004976915445140277,0.12958524280666642,0.03238403885536369,0.0019089538693686722,-0.03548608889308784
24.185290630000054,0.0,0.0,0.0,-0.001090830782496456,0.0,-0.058124242445098354,-0.0,-0.998309357083356,1.0,1.0,-0.004666597815230489,0.12970574665814638,0.04170348681509495,0.0,-0.04469815921038389,-0.15911728143692017,-0.16674934513866901,-0.004122638143599033,-0.005924933589994907,0.01528452429920435,0.1396814715117216,0.03366669546812773,0.0,-0.03091733157634735,-0.004397411591939029,0.12021773346197806,0.02831769440591253,0.010737865515199285,-0.0337475773334841,-0.1687378866674205,-0.15800002115222123,-0.016069300964650868,-0.016145659119425823,0.004976915445140277,0.12958524280666642,0.03238403885536369,0.0019089538693686722,-0.03548608889308784
24.205621305000022,0.0,0.0,0.001090830782496456,0.001090830782496456,0.001090830782496456,-0.058124242445098354,-0.0,-0.998309357083356,1.0,1.0,-0.0046429026406258345,0.12973338272422552,0.04166604019701481,0.0,-0.044849651865661144,-0.15902182087302208,-0.16662683337926865,-0.004112355411052704,-0.005940680392086506,0.015283471904695034,0.1396309845149517,0.033595760352909565,0.0,-0.030960649251937866,-0.004397411591939029,0.12021773346197806,0.02831769440591253,0.010737865515199285,-0.0337475773334841,-0.1687378866674205,-0.15800002115222123,-0.016069300964650868,-0.016145659119425823,0.004976915445140277,0.12958524280666642,0.03238403885536369,0.0019089538693686722,-0.03548608889308784
24.225759373000074,0.0,0.0,-0.003272492347489368,-0.001090830782496456,0.0,-0.058124242445098354,-0.0,-0.998309357083356,1.0,1.0,-0.004750695778056979,0.12964423280209303,0.04177526943385601,0.0,-0.04465514421463013,-0.15917005389928818,-0.16655264981091022,-0.0042061759158968925,-0.0059446850791573524,0.015267455019056797,0.13970934599637985,0.033720930106937885,0.0,-0.030980762094259262,-0.004397411591939029,0.12021773346197806,0.02831769440591253,0.010737865515199285,-0.0337475773334841,-0.1687378866674205,-0.15800002115222123,-0.016069300964650868,-0.016145659119425823,0.004976915445140277,0.12958524280666642,0.03238403885536369,0.0019089538693686722,-0.03548608889308784
24.245717443000103,0.0,0.0,0.001090830782496456,0.002181661564992912,0.002181661564992912,-0.058124242445098354,-0.0,-0.998309357083356,1.0,1.0,-0.004644912434741855,0.129748216830194,0.04163661040365696,0.0,-0.04493551142513752,-0.15901459753513336,-0.16649046167731285,-0.004076343961060047,-0.005960325710475445,0.015266797505319118,0.13958874344825745,0.03355508577078581,0.0,-0.03099430352449417,-0.004397411591939029,0.12021773346197806,0.02831769440591253,0.010737865515199285,-0.0337475773334841,-0.1687378866674205,-0.15800002115222123,-0.016069300964650868,-0.016145659119425823,0.004976915445140277,0.12958524280666642,0.03238403885536369,0.0019089538693686722,-0.03548608889308784
24.265837937000015,0.0,0.0,0.004363323129985824,0.002181661564992912,0.0,-0.058124242445098354,-0.0,-0.998309357083356,1.0,1.0,-0.004534495295956731,0.12975488882511854,0.04165590740740299,0.0,-0.044851288199424744,-0.15908512473106384,-0.1667247973382473,-0.0041053881868720055,-0.005861874669790268,0.015322722494602203,0.1396238598972559,0.03356520179659128,0.0,-0.030900204554200172,-0.004397411591939029,0.12021773346197806,0.02831769440591253,0.010737865515199285,-0.0337475773334841,-0.1687378866674205,-0.15800002115222123,-0.016069300964650868,-0.016145659119425823,0.004976915445140277,0.12958524280666642,0.03238403885536369,0.0019089538693686722,-0.03548608889308784
24.2859055240001,0.0,0.0,0.001090830782496456,-0.001090830782496456,-0.002181661564992912,-0.058124242445098354,-0.0,-0.998309357083356,1.0,1.0,-0.0045924203004688025,0.12971909157931805,0.04172938130795956,0.0,-0.04467408452183008,-0.1591382883489132,-0.1668249275535345,-0.004185568541288376,-0.005870465654879808,0.015332755632698536,0.1396904643625021,0.03364593628793955,0.0,-0.030898889526724815,-0.004397411591939029,0.12021773346197806,0.02831769440591253,0.010737865515199285,-0.0337475773334841,-0.1687378866674205,-0.15800002115222123,-0.016069300964650868,-0.016145659119425823,0.004976915445140277,0.12958524280666642,0.03238403885536369,0.0019089538693686722,-0.03548608889308784
24.305987426,0.0,0.0,0.001090830782496456,0.0,0.001090830782496456,-0.058124242445098354,-0.0,-0.998309357083356,1.0,1.0,-0.004645348293706775,0.12973259389400482,0.041663965210318565,0.0,-0.044794708490371704,-0.159059789031744,-0.1667099203914404,-0.004066364839673042,-0.005938531830906868,0.015270521864295006,0.13964307866990566,0.03362175542861223,0.0,-0.030929051339626312,-0.004397411591939029,0.12021773346197806,0.02831769440591253,0.010737865515199285,-0.0337475773334841,-0.1687378866674205,-0.15800002115222123,-0.016069300964650868,-0.016145659119425823,0.004976915445140277,0.12958524280666642,0.03238403885536369,0.0019089538693686722,-0.03548608889308784
24.326036921000195,0.0,0.0,0.0,0.002181661564992912,0.001090830782496456,-0.058124242445098354,-0.0,-0.998309357083356,1.0,1.0,-0.0047039620112627745,0.12970111332833767,0.041672440245747566,0.0,-0.04486744198948145,-0.15898331627249718,-0.1664997786283493,-0.004166310653090477,-0.005958360619843006,0.015270999632775784,0.1396379116922617,0.03361768368631601,0.0,-0.031005730852484703,-0.004397411591939029,0.12021773346197806,0.02831769440591253,0.010737865515199285,-0.0337475773334841,-0.1687378866674205,-0.15800002115222123,-0.016069300964650868,-0.016145659119425823,0.004976915445140277,0.12958524280666642,0.03238403885536369,0.0019089538693686722,-0.03548608889308784
24.346103600000106,0.0,0.0,0.002181661564992912,-0.001090830782496456,0.0,-0.058124242445098354,-0.0,-0.998309357083356,1.0,1.0,-0.004540859488770366,0.12973703909665346,0.041729966178536415,0.0,-0.04469344578683376,-0.15924452245235443,-0.1668311171233654,-0.0040807463228702545,-0.005854562856256962,0.015316181816160679,0.13966891169548035,0.033631146885454655,0.0,-0.03086601011455059,-0.004397411591939029,0.12021773346197806,0.02831769440591253,0.010737865515199285,-0.0337475773334841,-0.1687378866674205,-0.15800002115222123,-0.016069300964650868,-0.016145659119425823,0.004976915445140277,0.12958524280666642,0.03238403885536369,0.0019089538693686722,-0.03548608889308784
24.36644635000016,0.0,0.0,0.002181661564992912,0.002181661564992912,0.0,-0.058124242445098354,-0.0,-0.998309357083356,1.0,1.0,-0.004636697703972459,0.1297497358173132,0.04161393828690052,0.0,-0.04490735940635204,-0.1589180827140808,-0.1666190456598997,-0.004143525846302509,-0.005943079479038715,0.01529794279485941,0.1396113596856594,0.03355779219418764,0.0,-0.030972160398960114,-0.004397411591939029,0.12021773346197806,0.02831769440591253,0.010737865515199285,-0.0337475773334841,-0.1687378866674205,-0.15800002115222123,-0.016069300964650868,-0.016145659119425823,0.004976915445140277,0.12958524280666642,0.03238403885536369,0.0019089538693686722,-0.03548608889308784
24.386221201000126,0.0,0.0,-0.002181661564992912,-0.003272492347489368,0.002181661564992912,-0.058124242445098354,-0.0,-0.998309357083356,1.0,1.0,-0.0047207840252667665,0.12964156549423933,0.04179074428975582,0.0,-0.044524602591991425,-0.15935367345809937,-0.1667533963918686,-0.004045548848807812,-0.0059180851094424725,0.015227310359477997,0.13973796740174294,0.0337888291105628,0.0,-0.03087715245783329,-0.004397411591939029,0.12021773346197806,0.02831769440591253,0.010737865515199285,-0.0337475773334841,-0.1687378866674205,-0.15800002115222123,-0.016069300964650868,-0.016145659119425823,0.004976915445140277,0.12958524280666642,0.03238403885536369,0.0019089538693686722,-0.03548608889308784
24.407086720000052,0.0,0.0,-0.001090830782496456,0.0,0.0,-0.058124242445098354,-0.0,-0.998309357083356,1.0,1.0,-0.004655269207432866,0.12972803972661495,0.041681813076138496,0.0,-0.04483295604586601,-0.15899909287691116,-0.16654858738183975,-0.004208891652524471,-0.005958050489425659,0.01530842948704958,0.1396377608180046,0.033572577871382236,0.0,-0.031011689454317093,-0.004397411591939029,0.12021773346197806,0.02831769440591253,0.010737865515199285,-0.0337475773334841,-0.1687378866674205,-0.15800002115222123,-0.016069300964650868,-0.016145659119425823,0.004976915445140277,0.12958524280666642,0.03238403885536369,0.0019089538693686722,-0.03548608889308784
24.426937440000074,0.0,0.0,-0.002181661564992912,-0.001090830782496456,-0.001090830782496456,-0.058124242445098354,-0.0,-0.998309357083356,1.0,1.0,-0.004683599574491382,0.12966091465204954,0.04178375191986561,0.0,-0.044662436470389366,-0.15918836742639542,-0.1666135936975479,-0.004202890209853649,-0.00590858468785882,0.015290585346519947,0.13970403000712395,0.033694556914269924,0.0,-0.030958833172917366,-0.004397411591939029,0.12021773346197806,0.02831769440591253,0.010737865515199285,-0.0337475773334841,-0.1687378866674205,-0.15800002115222123,-0.016069300964650868,-0.016145659119425823,0.004976915445140277,0.12958524280666642,0.03238403885536369,0.0019089538693686722,-0.03548608889308784
24.44694015800019,0.0,0.0,-0.001090830782496456,-0.001090830782496456,-0.002181661564992912,-0.058124242445098354,-0.0,-0.998309357083356,1.0,1.0,-0.004609158495441079,0.12971562705934048,0.04174230434000492,0.0,-0.0447325948625803,-0.15911080315709114,-0.16665677353739738,-0.004229710437357426,-0.005903537850826979,0.015331338159739971,0.13966934941709042,0.03360761608928442,0.0,-0.030972104519605637,-0.004397411591939029,0.12021773346197806,0.02831769440591253,0.010737865515199285,-0.0337475773334841,-0.1687378866674205,-0.15800002115222123,-0.016069300964650868,-0.016145659119425823,0.004976915445140277,0.12958524280666642,0.03238403885536369,0.0019089538693686722,-0.03548608889308784
24.467521959000123,0.0,0.0,0.0,0.0,-0.001090830782496456,-0.058124242445098354,-0.0,-0.998309357083356,1.0,1.0,-0.00463176635093987,0.129709517583251,0.04171094857156277,0.0,-0.04476647637784481,-0.159081868827343,-0.16665440797805786,-0.0041664112359285355,-0.005911638494580984,0.015299958176910877,0.13966127671301365,0.03362268675118685,0.0,-0.030954891815781593,-0.004397411591939029,0.12021773346197806,0.02831769440591253,0.010737865515199285,-0.0337475773334841,-0.1687378866674205,-0.15800002115222123,-0.016069300964650868,-0.016145659119425823,0.004976915445140277,0.12958524280666642,0.03238403885536369,0.0019089538693686722,-0.03548608889308784
24.487127979000206,0.0,0.0,0.0,-0.001090830782496456,0.0,-0.058124242445098354,-0.0,-0.998309357083356,1.0,1.0,-0.00462746131233871,0.1297043226659298,0.041722049936652184,0.0,-0.044700536876916885,-0.15916241332888603,-0.1667226180434227,-0.0041219256818294525,-0.005906380712985992,0.015284519642591476,0.13967793993651867,0.03365451004356146,0.0,-0.030922826379537582,-0.004397411591939029,0.12021773346197806,0.02831769440591253,0.010737865515199285,-0.0337475773334841,-0.1687378866674205,-0.15800002115222123,-0.016069300964650868,-0.016145659119425823,0.004976915445140277,0.12958524280666642,0.03238403885536369,0.0019089538693686722,-0.03548608889308784
24.50713917799999,0.0,0.0,0.0,-0.002181661564992912,0.0,-0.058124242445098354,-0.0,-0.998309357083356,1.0,1.0,-0.004610731033608317,0.12970887776464224,0.04172538034617901,0.0,-0.04465872887521982,-0.1591869443655014,-0.16679399833083153,-0.004113382659852505,-0.005900654010474682,0.01529090479016304,0.13968986831605434,0.03365797270089388,0.0,-0.03089953400194645,-0.004397411591939029,0.12021773346197806,0.02831769440591253,0.010737865515199285,-0.0337475773334841,-0.1687378866674205,-0.15800002115222123,-0.016069300964650868,-0.016145659119425823,0.004976915445140277,0.12958524280666642,0.03238403885536369,0.0019089538693686722,-0.03548608889308784
24.527256413000032,0.0,0.0,0.0,-0.001090830782496456,0.0,-0.058124242445098354,-0.0,-0.998309357083356,1.0,1.0,-0.00463102082721889,0.12971207406371832,0.041702138260006905,0.0,-0.044726704247295856,-0.15909703820943832,-0.16672764346003532,-0.004135738126933575,-0.005922360345721245,0.015287328511476517,0.13967292197048664,0.033635989762842655,0.0,-0.03093380108475685,-0.004397411591939029,0.12021773346197806,0.02831769440591253,0.010737865515199285,-0.0337475773334841,-0.1687378866674205,-0.15800002115222123,-0.016069300964650868,-0.016145659119425823,0.004976915445140277,0.12958524280666642,0.03238403885536369,0.0019089538693686722,-0.03548608889308784
24.547304982000014,0.0,0.0,0.0,0.0,0.0,-0.058124242445098354,-0.0,-0.998309357083356,1.0,1.0,-0.0046423550229519606,0.12970705516636372,0.04170398227870464,0.0,-0.04476734157651663,-0.1590716950595379,-0.16665852814912796,-0.004154138267040253,-0.005924890749156475,0.015285138972103596,0.13966402225196362,0.03363083582371473,0.0,-0.03095785155892372,-0.004397411591939029,0.12021773346197806,0.02831769440591253,0.010737865515199285,-0.0337475773334841,-0.1687378866674205,-0.15800002115222123,-0.016069300964650868,-0.016145659119425823,0.004976915445140277,0.12958524280666642,0.03238403885536369,0.0019089538693686722,-0.03548608889308784
24.567623880000156,0.0,0.0,-0.001090830782496456,-0.002181661564992912,0.002181661564992912,-0.058124242445098354,-0.0,-0.998309357083356,1.0,1.0,-0.00468192039988935,0.12967858184129,0.04172894544899464,0.0,-0.044636379927396774,-0.1592440828680992,-0.1667154897004366,-0.004044545814394951,-0.00593325961381197,0.015233787707984447,0.139694232493639,0.033711823634803295,0.0,-0.030904307961463928,-0.004397411591939029,0.12021773346197806,0.02831769440591253,0.010737865515199285,-0.0337475773334841,-0.1687378866674205,-0.15800002115222123,-0.016069300964650868,-0.016145659119425823,0.004976915445140277,0.12958524280666642,0.03238403885536369,0.0019089538693686722,-0.03548608889308784
24.58773280000014,0.0,0.0,0.003272492347489368,0.0,-0.002181661564992912,-0.058124242445098354,-0.0,-0.998309357083356,1.0,1.0,-0.004472446860745549,0.12977898865938187,0.041677916422486305,0.0,-0.0448154304176569,-0.1590356007218361,-0.16683159582316875,-0.004198415204882622,-0.005855088122189045,0.015373695641756058,0.13964012823998928,0.033520606346428394,0.0,-0.03091609850525856,-0.004397411591939029,0.12021773346197806,0.02831769440591253,0.010737865515199285,-0.0337475773334841,-0.1687378866674205,-0.15800002115222123,-0.016069300964650868,-0.016145659119425823,0.004976915445140277,0.12958524280666642,0.03238403885536369,0.0019089538693686722,-0.03548608889308784
24.60772253600021,0.0,0.0,0.0,0.0,-0.001090830782496456,-0.058124242445098354,-0.0,-0.998309357083356,1.0,1.0,-0.00467428402043879,0.12969083059579134,0.041706277057528496,0.0,-0.044728897511959076,-0.15905416011810303,-0.16670670546591282,-0.004161316901445389,-0.005922987125813961,0.015277532860636711,0.13968118093907833,0.03366927523165941,0.0,-0.030942503362894058,-0.004397411591939029,0.12021773346197806,0.02831769440591253,0.010737865515199285,-0.0337475773334841,-0.1687378866674205,-0.15800002115222123,-0.016069300964650868,-0.016145659119425823,0.004976915445140277,0.12958524280666642,0.03238403885536369,0.0019089538693686722,-0.03548608889308784
24.627929417000132,0.0,0.0,0.006544984694978736,-0.001090830782496456,-0.002181661564992912,-0.058124242445098354,-0.0,-0.998309357083356,1.0,1.0,-0.004347862442955375,0.12982337828725576,0.041678888723254204,0.0,-0.0447564534842968,-0.1591530777513981,-0.16711525060236454,-0.004078434780240059,-0.005787460133433342,0.015389869920909405,0.13964216969907284,0.033519322983920574,0.0,-0.030803944915533066,-0.004397411591939029,0.12021773346197806,0.02831769440591253,0.010737865515199285,-0.0337475773334841,-0.1687378866674205,-0.15800002115222123,-0.016069300964650868,-0.016145659119425823,0.004976915445140277,0.12958524280666642,0.03238403885536369,0.0019089538693686722,-0.03548608889308784
24.64790602400012,0.0,0.0,-0.003272492347489368,-0.003272492347489368,0.001090830782496456,-0.058124242445098354,-0.0,-0.998309357083356,1.0,1.0,-0.004817934008315206,0.12962610833346844,0.04172641970217228,0.0,-0.04454043786972761,-0.1591482311487198,-0.16675809025764465,-0.004099112935364246,-0.005984806921333075,0.015203475952148438,0.13974623009562492,0.03380193840712309,0.0,-0.030912775546312332,-0.004397411591939029,0.12021773346197806,0.02831769440591253,0.010737865515199285,-0.0337475773334841,-0.1687378866674205,-0.15800002115222123,-0.016069300964650868,-0.016145659119425823,0.004976915445140277,0.12958524280666642,0.03238403885536369,0.0019089538693686722,-0.03548608889308784
24.66797913000005,0.0,0.0,0.001090830782496456,-0.001090830782496456,-0.001090830782496456,-0.058124242445098354,-0.0,-0.998309357083356,1.0,1.0,-0.0045106818433851,0.12976077757775784,0.04172957502305508,0.0,-0.044783626683056355,-0.15907778218388557,-0.16679155640304089,-0.004194149747490883,-0.005882637575268745,0.01535351388156414,0.13965670950710773,0.033553373999893665,0.0,-0.030943946912884712,-0.004397411591939029,0.12021773346197806,0.02831769440591253,0.010737865515199285,-0.0337475773334841,-0.1687378866674205,-0.15800002115222123,-0.016069300964650868,-0.016145659119425823,0.004976915445140277,0.12958524280666642,0.03238403885536369,0.0019089538693686722,-0.03548608889308784
24.68803379100018,0.0,0.0,0.001090830782496456,0.0,0.002181661564992912,-0.058124242445098354,-0.0,-0.998309357083356,1.0,1.0,-0.004682929487898946,0.12970474641770124,0.04165163077414036,0.0,-0.04475803021341562,-0.15910139679908752,-0.16671139746904373,-0.004011679440736771,-0.005950565449893475,0.015225888229906559,0.13965299911797047,0.03366862144321203,0.0,-0.03090309351682663,-0.004397411591939029,0.12021773346197806,0.02831769440591253,0.010737865515199285,-0.0337475773334841,-0.1687378866674205,-0.15800002115222123,-0.016069300964650868,-0.016145659119425823,0.004976915445140277,0.12958524280666642,0.03238403885536369,0.0019089538693686722,-0.03548608889308784
24.7080745090002,0.0,0.0,0.002181661564992912,-0.003272492347489368,0.0,-0.058124242445098354,-0.0,-0.998309357083356,1.0,1.0,-0.004504866199567914,0.1297353832051158,0.04173923842608929,0.0,-0.04459858499467373,-0.15927409753203392,-0.16700164042413235,-0.004082684405148029,-0.005844259634613991,0.015322739258408546,0.13970651850104332,0.03364842850714922,0.0,-0.03082454390823841,-0.004397411591939029,0.12021773346197806,0.02831769440591253,0.010737865515199285,-0.0337475773334841,-0.1687378866674205,-0.15800002115222123,-0.016069300964650868,-0.016145659119425823,0.004976915445140277,0.12958524280666642,0.03238403885536369,0.0019089538693686722,-0.03548608889308784
24.728637125000205,0.0,0.0,0.003272492347489368,-0.002181661564992912,0.002181661564992912,-0.058124242445098354,-0.0,-0.998309357083356,1.0,1.0,-0.004571710480377078,0.12975898291915655,0.04162662290036678,0.0,-0.04470524936914444,-0.15913160145282745,-0.16698008030653,-0.003954126499593258,-0.005917822010815144,0.015257432125508785,0.13965721055865288,0.033631171099841595,0.0,-0.030821621417999268,-0.004397411591939029,0.12021773346197806,0.02831769440591253,0.010737865515199285,-0.0337475773334841,-0.1687378866674205,-0.15800002115222123,-0.016069300964650868,-0.016145659119425823,0.004976915445140277,0.12958524280666642,0.03238403885536369,0.0019089538693686722,-0.03548608889308784
24.748238775000118,0.0,0.0,0.0,0.0,0.002181661564992912,-0.058124242445098354,-0.0,-0.998309357083356,1.0,1.0,-0.004704007180407643,0.12969107273966074,0.04167125187814236,0.0,-0.04476327262818813,-0.1590208187699318,-0.16667927615344524,-0.004110458306968212,-0.0059676747769117355,0.0152429873123765,0.13967563770711422,0.033665464259684086,0.0,-0.030950184911489487,-0.004397411591939029,0.12021773346197806,0.02831769440591253,0.010737865515199285,-0.0337475773334841,-0.1687378866674205,-0.15800002115222123,-0.016069300964650868,-0.016145659119425823,0.004976915445140277,0.12958524280666642,0.03238403885536369,0.0019089538693686722,-0.03548608889308784
