time_s,forward_cmd_m_s,yaw_cmd_rad_s,gyro_x,gyro_y,gyro_z,grav_x,grav_y,grav_z,left_contact,right_contact,left_hip_yaw_velocity_rad_s,left_hip_roll_velocity_rad_s,left_hip_pitch_velocity_rad_s,left_knee_velocity_rad_s,left_ankle_velocity_rad_s,neck_pitch_velocity_rad_s,head_pitch_velocity_rad_s,head_yaw_velocity_rad_s,head_roll_velocity_rad_s,right_hip_yaw_velocity_rad_s,right_hip_roll_velocity_rad_s,right_hip_pitch_velocity_rad_s,right_knee_velocity_rad_s,right_ankle_velocity_rad_s,left_hip_yaw_action,left_hip_roll_action,left_hip_pitch_action,left_knee_action,left_ankle_action,neck_pitch_action,head_pitch_action,head_yaw_action,head_roll_action,right_hip_yaw_action,right_hip_roll_action,right_hip_pitch_action,right_knee_action,right_ankle_action,left_hip_yaw_unclipped_target_rad,left_hip_roll_unclipped_target_rad,left_hip_pitch_unclipped_target_rad,left_knee_unclipped_target_rad,left_ankle_unclipped_target_rad,neck_pitch_unclipped_target_rad,head_pitch_unclipped_target_rad,head_yaw_unclipped_target_rad,head_roll_unclipped_target_rad,right_hip_yaw_unclipped_target_rad,right_hip_roll_unclipped_target_rad,right_hip_pitch_unclipped_target_rad,right_knee_unclipped_target_rad,right_ankle_unclipped_target_rad,left_hip_yaw_target_rad,left_hip_roll_target_rad,left_hip_pitch_target_rad,left_knee_target_rad,left_ankle_target_rad,neck_pitch_target_rad,head_pitch_target_rad,head_yaw_target_rad,head_roll_target_rad,right_hip_yaw_target_rad,right_hip_roll_target_rad,right_hip_pitch_target_rad,right_knee_target_rad,right_ankle_target_rad,left_hip_yaw_actual_rad,left_hip_roll_actual_rad,left_hip_pitch_actual_rad,left_knee_actual_rad,left_ankle_actual_rad,neck_pitch_actual_rad,head_pitch_actual_rad,head_yaw_actual_rad,head_roll_actual_rad,right_hip_yaw_actual_rad,right_hip_roll_actual_rad,right_hip_pitch_actual_rad,right_knee_actual_rad,right_ankle_actual_rad
19.436757682999996,0.0,0.0,-0.05781403147231216,0.002181661564992912,0.003272492347489368,-0.05919168621415191,-0.09184916826333918,-0.9940121098721373,1.0,1.0,0.0,-0.0,-0.0,-0.0,-0.0,-0.0,-0.0,0.0,0.0,-0.0,0.0,0.0,0.0,0.0,0.02860988862812519,-0.06466652452945709,0.09606097638607025,0.1639835387468338,0.23468594253063202,-0.002252500504255295,0.03512828052043915,0.038828618824481964,-0.004715023562312126,-0.04504173994064331,-0.03952579200267792,0.14228485524654388,0.1796560287475586,0.3306043744087219,0.009595933137461543,0.10600641742348671,0.032392824068665504,0.0017259754240512848,0.002820950001478195,-0.20843183528631926,-0.13311319425702095,0.009707154706120491,-0.0011787558905780315,-0.007071644999086857,0.1122916005551815,0.047264919616281986,0.005644097924232483,0.02680055797100067,0.009595933137461543,0.10600641742348671,0.032392824068665504,0.0,0.002820950001478195,-0.20843183528631926,-0.13311319425702095,0.009707154706120491,-0.0011787558905780315,-0.007071644999086857,0.1122916005551815,0.047264919616281986,0.0,0.02680055797100067,0.00940841549903186,0.12021773346197806,0.008375944163398874,-0.0015339807878858025,-0.0813009817579391,-0.21015536794033274,-0.13805827090970757,0.008474391641519308,0.011465995062515957,0.0003749730814833138,0.11117747335203901,0.007840346249193067,-0.00422696928217365,-0.06309774307502918
19.446010984999987,0.0,0.0,-0.05235987755982989,-0.001090830782496456,0.01090830782496456,-0.05919720457269058,-0.09083708977533556,-0.9941047802379419,1.0,1.0,0.0,-0.0,-0.0,-0.0,0.07671776931843206,-0.0,-0.0,0.0,0.0,0.07671776931843206,0.0,0.0,0.0,0.0,0.06113860756158829,-0.05092620477080345,0.06672750413417816,0.13076381385326385,0.1844501495361328,-0.026679741218686104,0.045348986983299255,0.0239091943949461,0.017142299562692642,-0.0391048863530159,-0.04045757278800011,0.14176395535469055,0.18644097447395325,0.3718726634979248,0.017728112870827317,0.10944149736315012,0.025059456005692482,-0.006578955799341202,-0.009737998247146606,-0.21453864546492696,-0.13055801764130592,0.005977298598736525,0.0042855748906731606,-0.005587431602180004,0.11205865535885096,0.04713469464331865,0.007340334355831146,0.03711763024330139,0.017728112870827317,0.10944149736315012,0.025059456005692482,-0.006578955799341202,-0.009737998247146606,-0.21453864546492696,-0.13055801764130592,0.005977298598736525,0.0042855748906731606,-0.005587431602180004,0.11205865535885096,0.04713469464331865,0.0,0.03711763024330139,0.00940841549903186,0.12021773346197806,0.008375944163398874,-0.0015339807878858025,-0.07976700097005329,-0.21015536794033274,-0.13805827090970757,0.008474391641519308,0.011465995062515957,0.0019089538693686722,0.11117747335203901,0.007840346249193067,-0.005760950070059452,-0.06309774307502918
19.465727477,0.0,0.0,-0.025089107997418487,0.003272492347489368,0.018544123302439753,-0.18684118416141549,-0.08839797960325033,-0.9784049106087026,1.0,1.0,0.0,-0.0,-0.0,-0.15343553863686413,0.2301533079552962,-0.0,-0.0,0.0,0.0,-0.0,0.0,0.0,-0.15343553863686413,0.0,-0.05448858439922333,-0.14030155539512634,-0.04973933473229408,-0.11406923830509186,-0.013698488473892212,-0.27623122930526733,-0.1661878377199173,0.17675074934959412,0.24553385376930237,0.007547656074166298,-0.012043749913573265,0.4212740957736969,0.6136127710342407,0.6769236922264099,-0.011178685119375587,0.0870976597070694,-0.004057253710925579,-0.06778721883893013,-0.05927515774965286,-0.27692651748657227,-0.18344222381711006,0.04418768733739853,0.06138346344232559,0.006075704004615545,0.11916211107745767,0.11701222974807024,0.11413328349590302,0.11338038742542267,-0.011178685119375587,0.0870976597070694,-0.004057253710925579,-0.06778721883893013,-0.05927515774965286,-0.27692651748657227,-0.18344222381711006,0.04418768733739853,0.06138346344232559,0.006075704004615545,0.11916211107745767,0.11701222974807024,0.0,0.11338038742542267,0.00940841549903186,0.12021773346197806,0.008375944163398874,-0.007669903939428124,-0.07516505860639633,-0.21015536794033274,-0.13805827090970757,0.008474391641519308,0.011465995062515957,0.0019089538693686722,0.11117747335203901,0.007840346249193067,-0.010362892433716415,-0.06309774307502918
19.485743893000006,0.0,0.0,-0.025089107997418487,0.003272492347489368,0.018544123302439753,-0.18684118416141549,-0.08839797960325033,-0.9784049106087026,1.0,1.0,0.0,-0.0,-0.0,-0.30687107727372825,0.2301533079552962,-0.0,-0.0,0.0,0.0,-0.0,0.0,0.0,-0.30687107727372825,0.07671776931843206,-0.06544677913188934,-0.18057261407375336,-0.1466289907693863,-0.19187197089195251,-0.01422932744026184,-0.30630797147750854,-0.2915817201137543,0.1757638305425644,0.3291153311729431,0.05411741882562637,-0.058488305658102036,0.5196621417999268,0.7477905750274658,0.7668077349662781,-0.01391823380254209,0.07702989503741264,-0.02827966772019863,-0.0872379019856453,-0.05940786749124527,-0.28444570302963257,-0.2147906944155693,0.0439409576356411,0.08227883279323578,0.017718144692480564,0.10755097214132547,0.1416092412546277,0.1476777344942093,0.1358513981103897,-0.01391823380254209,0.07702989503741264,-0.02827966772019863,-0.0872379019856453,-0.05940786749124527,-0.28444570302963257,-0.2147906944155693,0.0439409576356411,0.08227883279323578,0.017718144692480564,0.10755097214132547,0.1416092412546277,0.0,0.1358513981103897,0.00940841549903186,0.12021773346197806,0.008375944163398874,-0.01380582709097089,-0.07056311624273937,-0.21015536794033274,-0.13805827090970757,0.008474391641519308,0.011465995062515957,0.0019089538693686722,0.11117747335203901,0.00937432703707887,-0.016498815585258737,-0.06156376228714382
19.505705216999985,0.0,0.0,0.016362461737446838,0.014180800172453928,-0.018544123302439753,-0.059202662791508175,-0.0898247297526331,-0.9941964406711891,1.0,1.0,0.0,-0.0,0.07671776931843206,-0.30687107727372825,0.2301533079552962,-0.07671776931843206,-0.0,0.07671776931843206,0.0,-0.0,0.0,0.07671776931843206,-0.2301533079552962,0.07671776931843206,0.03175606578588486,-0.07325489819049835,0.0032268203794956207,-0.020800307393074036,0.12735949456691742,-0.01832602173089981,-0.10006852447986603,0.06093441694974899,0.10623012483119965,0.0687180608510971,-0.07344311475753784,0.20971623063087463,0.2903512418270111,0.44986486434936523,0.01038247742690146,0.1038593240082264,0.009184285067021847,-0.044469986110925674,-0.024010661989450455,-0.21245021559298038,-0.16691239550709724,0.015233604237437248,0.02655753120779991,0.021368305198848248,0.10381226986646652,0.06412276346236467,0.03331790119409561,0.0566156804561615,0.01038247742690146,0.1038593240082264,0.009184285067021847,-0.044469986110925674,-0.024010661989450455,-0.21245021559298038,-0.16691239550709724,0.015233604237437248,0.02655753120779991,0.021368305198848248,0.10381226986646652,0.06412276346236467,0.0,0.0566156804561615,0.00940841549903186,0.12021773346197806,0.009909924951284677,-0.019941750242513212,-0.0659611738790824,-0.21782527187976086,-0.1365242901218222,0.01000837242940511,0.011465995062515957,0.0019089538693686722,0.11117747335203901,0.00937432703707887,-0.0211007579489157,-0.058495800711372656
19.525824486000005,0.0,0.0,0.07090400086226964,0.02181661564992912,-0.050178215994836975,-0.18682450105019607,-0.08939451931971747,-0.9783175485101665,1.0,1.0,0.0,-0.0,-0.0,-0.30687107727372825,0.30687107727372825,-0.4603066159105924,0.15343553863686413,0.0,0.0,-0.15343553863686413,0.0,0.07671776931843206,-0.2301533079552962,0.15343553863686413,-0.08989682048559189,-0.15743568539619446,-0.06966996192932129,-0.2128809094429016,-0.027567289769649506,-0.288754403591156,-0.26693689823150635,0.22002169489860535,0.2680225670337677,0.022114261984825134,-0.02542198821902275,0.4767090678215027,0.6719963550567627,0.7528430819511414,-0.020030744140967727,0.08281412720680237,-0.00903991051018238,-0.09249013662338257,-0.06274235807359219,-0.28005731105804443,-0.20862948894500732,0.05500542372465134,0.06700564175844193,0.009717355482280254,0.1158175515010953,0.1308709727600217,0.1287291795015335,0.13236023485660553,-0.020030744140967727,0.08281412720680237,-0.00903991051018238,-0.09249013662338257,-0.06274235807359219,-0.28005731105804443,-0.20862948894500732,0.05500542372465134,0.06700564175844193,0.009717355482280254,0.1158175515010953,0.1308709727600217,0.0,0.13236023485660553,0.007874434711146502,0.11868375267409226,0.009909924951284677,-0.026077673394055978,-0.05982525072754008,-0.2300971181828464,-0.1334563285460506,0.01000837242940511,0.011465995062515957,-0.0011590077064024887,0.11117747335203901,0.01244228861285003,-0.025702700312572664,-0.05542783913560105
19.54593366199998,0.0,0.0,0.016362461737446838,0.014180800172453928,-0.06217735460229799,-0.05817462391394974,-0.09185466933781536,-0.9940716437225796,1.0,1.0,-0.07671776931843206,-0.15343553863686413,-0.0,-0.3835888465921603,0.2301533079552962,-0.5370243852290244,0.07671776931843206,0.0,0.0,-0.0,0.0,0.15343553863686413,-0.2301533079552962,0.15343553863686413,0.013961927965283394,-0.09266753494739532,-0.023950831964612007,-0.04818648099899292,0.1512938141822815,-0.0706743448972702,-0.10171566903591156,0.0645952895283699,0.09629400074481964,0.06140724569559097,-0.0766075998544693,0.26075443625450134,0.282539039850235,0.5243844985961914,0.005933942971751094,0.09900616481900215,0.00238987198099494,-0.051316529512405396,-0.018027082085609436,-0.22553729638457298,-0.16732418164610863,0.016148822382092476,0.02407350018620491,0.019540601409971714,0.10302114859223366,0.07688231486827135,0.03136485069990158,0.07524558901786804,0.005933942971751094,0.09900616481900215,0.00238987198099494,-0.051316529512405396,-0.018027082085609436,-0.22553729638457298,-0.16732418164610863,0.016148822382092476,0.02407350018620491,0.019540601409971714,0.10302114859223366,0.07688231486827135,0.0,0.07524558901786804,0.007874434711146502,0.1140818103104353,0.009909924951284677,-0.0337475773334841,-0.053689327575997314,-0.23316507975861755,-0.1334563285460506,0.01000837242940511,0.012999975850401316,-0.0011590077064024887,0.11117747335203901,0.017044230976506994,-0.028770661888343825,-0.05082589677194409
19.56471209899999,0.0,0.0,0.050178215994836975,0.025089107997418487,-0.07526732399225546,-0.05817462391394974,-0.09185466933781536,-0.9940716437225796,1.0,1.0,-0.15343553863686413,-0.30687107727372825,-0.0,-0.30687107727372825,0.30687107727372825,-0.15343553863686413,-0.0,0.15343553863686413,0.07671776931843206,-0.0,0.0,0.2301533079552962,-0.07671776931843206,0.30687107727372825,0.012011585757136345,-0.08682847023010254,0.0012559909373521805,0.02699963003396988,0.2137031853199005,-0.07625341415405273,-0.04359966516494751,0.06588935106992722,0.04686267301440239,0.0034317094832658768,-0.049183666706085205,0.23683714866638184,0.19865089654922485,0.49450385570526123,0.005446357419714332,0.10046593099832535,0.008691577706485987,-0.032520001754164696,-0.0024247393012046814,-0.22693206369876862,-0.15279518067836761,0.016472337767481804,0.011715668253600597,0.00504671735689044,0.10987713187932968,0.07090299297124147,0.010392814874649048,0.0677754282951355,0.005446357419714332,0.10046593099832535,0.008691577706485987,-0.032520001754164696,-0.0024247393012046814,-0.22693206369876862,-0.15279518067836761,0.016472337767481804,0.011715668253600597,0.00504671735689044,0.10987713187932968,0.07090299297124147,0.0,0.0677754282951355,0.003272492347489539,0.10794588715889297,0.009909924951284677,-0.038349519697141066,-0.04908738521234035,-0.23776702212227452,-0.1334563285460506,0.013076334005176271,0.014533956638287118,-0.0011590077064024887,0.11117747335203901,0.021646173340163957,-0.030304642676229628,-0.044689973620401766
19.58480103400001,0.0,0.0,0.06654067773228381,0.003272492347489368,0.0545415391248228,-0.057151992432348885,-0.09287198770256694,-0.9940364398054966,1.0,1.0,-0.15343553863686413,-0.2301533079552962,-0.0,-0.30687107727372825,0.2301533079552962,-0.2301533079552962,-0.0,0.07671776931843206,0.15343553863686413,0.15343553863686413,0.0,0.15343553863686413,-0.07671776931843206,0.3835888465921603,0.015001753345131874,-0.08603791892528534,-0.020585253834724426,0.03654877841472626,0.22168850898742676,-0.08471488952636719,-0.01647365093231201,0.04183925688266754,0.036397602409124374,-0.006915675476193428,-0.057138193398714066,0.23637619614601135,0.17172178626060486,0.468947172164917,0.006193899316713214,0.10066356882452965,0.003231266513466835,-0.0301327146589756,-0.0004284083843231201,-0.22904743254184723,-0.14601367712020874,0.010459814220666885,0.009099400602281094,0.002459871117025614,0.10788850020617247,0.07078775484114885,0.003660537302494049,0.06138625741004944,0.006193899316713214,0.10066356882452965,0.003231266513466835,-0.0301327146589756,-0.0004284083843231201,-0.22904743254184723,-0.14601367712020874,0.010459814220666885,0.009099400602281094,0.002459871117025614,0.10788850020617247,0.07078775484114885,0.0,0.06138625741004944,0.0017385115596037365,0.10487792558312181,0.009909924951284677,-0.04755340442445499,-0.04448544284868339,-0.23930100291015988,-0.1349903093339364,0.014610314793062074,0.01760191821405828,0.0019089538693686722,0.11117747335203901,0.024714134915935118,-0.030304642676229628,-0.038554050468859
19.604850747,0.0,0.0,0.04581489286485115,-0.014180800172453928,0.044724062082354694,-0.058169140661821474,-0.09286652281097814,-0.9939779474493703,1.0,1.0,0.0,-0.2301533079552962,-0.0,-0.3835888465921603,0.30687107727372825,-0.0,-0.07671776931843206,0.2301533079552962,0.15343553863686413,-0.0,0.0,0.2301533079552962,-0.07671776931843206,0.30687107727372825,0.015472697094082832,-0.0907880961894989,-0.028284411877393723,0.046931616961956024,0.24647320806980133,-0.0849950909614563,-0.0060124024748802185,0.049498699605464935,0.03626237064599991,-0.00879304762929678,-0.053815845400094986,0.23949405550956726,0.16255658864974976,0.46575236320495605,0.0063116352539509535,0.09947602450847626,0.001306477002799511,-0.02753700502216816,0.005767766386270523,-0.2291174829006195,-0.1433983650058508,0.012374674901366234,0.009065592661499977,0.001990528078749776,0.10871908720582724,0.07156721968203783,0.0013692378997802734,0.060587555170059204,0.0063116352539509535,0.09947602450847626,0.001306477002799511,-0.02753700502216816,0.005767766386270523,-0.2291174829006195,-0.1433983650058508,0.012374674901366234,0.009065592661499977,0.001990528078749776,0.10871908720582724,0.07156721968203783,0.0,0.060587555170059204,0.0017385115596037365,0.10027598321946485,0.009909924951284677,-0.05522330836388312,-0.038349519697141066,-0.23930100291015988,-0.13805827090970757,0.019212257156719037,0.022203860577715243,0.0019089538693686722,0.11117747335203901,0.02931607727959208,-0.03183862346411543,-0.029350165741545073
19.624903459999985,0.0,0.0,0.13308135546456762,-0.06326818538479445,0.08290313946973066,-0.059174770812980074,-0.09488368423460598,-0.9937280477903896,1.0,1.0,0.0,-0.15343553863686413,-0.0,-0.3835888465921603,0.2301533079552962,-0.0,-0.2301533079552962,0.15343553863686413,0.2301533079552962,0.2301533079552962,0.0,0.15343553863686413,0.0,0.4603066159105924,0.01247391663491726,-0.08900132775306702,-0.03608288615942001,0.014524579048156738,0.2429104894399643,-0.09203688055276871,-0.0028449296951293945,0.07313898205757141,0.04097922518849373,0.009985426440834999,-0.06016402319073677,0.2416355013847351,0.17667166888713837,0.4874497652053833,0.00556194013915956,0.09992271661758423,-0.0006431415677070618,-0.03563876450061798,0.004877086728811264,-0.2308779302984476,-0.14260649681091309,0.018284745514392853,0.010244806297123432,0.0066851465962827206,0.10713204275816679,0.07210258115082979,0.004898007959127426,0.06601190567016602,0.00556194013915956,0.09992271661758423,-0.0006431415677070618,-0.03563876450061798,0.004877086728811264,-0.2308779302984476,-0.14260649681091309,0.018284745514392853,0.010244806297123432,0.0066851465962827206,0.10713204275816679,0.07210258115082979,0.0,0.06601190567016602,0.0017385115596037365,0.09874200243157905,0.009909924951284677,-0.06289321230331124,-0.0337475773334841,-0.23930100291015988,-0.14266021327336453,0.022280218732490198,0.025271822153486848,0.006510896233025636,0.1096434925641532,0.03238403885536369,-0.03183862346411543,-0.02014628101423159
19.645610672000004,0.0,0.0,0.025089107997418487,-0.22471114119426994,0.02399827721492203,-0.06323999280328924,-0.09485998920493385,-0.9934798869419953,1.0,1.0,0.0,-0.07671776931843206,-0.0,-0.3835888465921603,0.2301533079552962,-0.0,-0.15343553863686413,0.15343553863686413,0.07671776931843206,0.15343553863686413,-0.07671776931843206,0.15343553863686413,0.0,0.4603066159105924,0.0037711523473262787,-0.11155547201633453,-0.05967986583709717,0.009865418076515198,0.2492208033800125,-0.10754747688770294,-0.03718432039022446,0.08395008742809296,0.06871898472309113,0.023091863840818405,-0.05584777519106865,0.28038835525512695,0.21364077925682068,0.5358991622924805,0.003386249067261815,0.09428418055176735,-0.00654238648712635,-0.036803554743528366,0.0064546652138233185,-0.23475557938218117,-0.15119134448468685,0.02098752185702324,0.01717974618077278,0.009961755946278572,0.10821110475808382,0.08179079461842775,0.014140285551548004,0.07812425494194031,0.003386249067261815,0.09428418055176735,-0.00654238648712635,-0.036803554743528366,0.0064546652138233185,-0.23475557938218117,-0.15119134448468685,0.02098752185702324,0.01717974618077278,0.009961755946278572,0.10821110475808382,0.08179079461842775,0.0,0.07812425494194031,0.0017385115596037365,0.09720802164369324,0.009909924951284677,-0.06902913545485401,-0.027611654181941336,-0.23930100291015988,-0.14419419406125034,0.02534818030826136,0.026805802941372206,0.009578857808796797,0.1096434925641532,0.03545200043113485,-0.03337260425200079,-0.010942396286917663
19.665249310999997,0.0,0.0,0.022907446432425576,-0.25634523388666713,-0.002181661564992912,-0.0683863259945728,-0.09492430324619806,-0.9931327640704378,1.0,1.0,0.0,-0.0,-0.0,-0.2301533079552962,0.30687107727372825,-0.0,-0.15343553863686413,0.07671776931843206,0.15343553863686413,0.07671776931843206,0.0,0.15343553863686413,-0.07671776931843206,0.4603066159105924,-0.0032200608402490616,-0.11538095772266388,-0.07216046750545502,-0.018168970942497253,0.24046659469604492,-0.11356867104768753,-0.06113715097308159,0.09210626035928726,0.08678038418292999,0.045245323330163956,-0.06190928444266319,0.2995849847793579,0.24181503057479858,0.559489905834198,0.00163844577036798,0.09332780912518501,-0.009662536904215813,-0.04381215199828148,0.004266113042831421,-0.23626087792217731,-0.15717955213040113,0.023026565089821815,0.021695096045732498,0.01550012081861496,0.10669572744518518,0.08658995199948549,0.02118384838104248,0.08402194082736969,0.00163844577036798,0.09332780912518501,-0.009662536904215813,-0.04381215199828148,0.004266113042831421,-0.23626087792217731,-0.15717955213040113,0.023026565089821815,0.021695096045732498,0.01550012081861496,0.10669572744518518,0.08658995199948549,0.0,0.08402194082736969,0.0017385115596037365,0.09720802164369324,0.009909924951284677,-0.07209709703062517,-0.023009711818284817,-0.23930100291015988,-0.1457281748491357,0.02688216109614716,0.029873764517143367,0.011112838596682599,0.1096434925641532,0.03698598121902065,-0.03337260425200079,-0.0017385115596037365
19.685236672000002,0.0,0.0,-0.06981317007977318,-0.23234695667174513,-0.12762720155208535,-0.07244826295804445,-0.09489702049433991,-0.9928473219461585,1.0,1.0,0.0,-0.0,-0.0,-0.15343553863686413,0.2301533079552962,-0.07671776931843206,-0.07671776931843206,0.07671776931843206,0.07671776931843206,-0.0,0.0,0.07671776931843206,0.0,0.4603066159105924,0.003001915290951729,-0.11934627592563629,-0.06041387841105461,-0.004010260105133057,0.251243531703949,-0.11174691468477249,-0.06967069208621979,0.08160647004842758,0.102643221616745,0.049805719405412674,-0.05997271463274956,0.3096226751804352,0.23246149718761444,0.5198553204536438,0.0031939398031681776,0.09233647957444191,-0.006725889630615711,-0.04027247428894043,0.006960347294807434,-0.23580543883144855,-0.15931293740868568,0.020401617512106895,0.02566080540418625,0.01664021983742714,0.1071798698976636,0.08909937459975481,0.018845465034246445,0.07411329448223114,0.0031939398031681776,0.09233647957444191,-0.006725889630615711,-0.04027247428894043,0.006960347294807434,-0.23580543883144855,-0.15931293740868568,0.020401617512106895,0.02566080540418625,0.01664021983742714,0.1071798698976636,0.08909937459975481,0.0,0.07411329448223114,0.0017385115596037365,0.09720802164369324,0.009909924951284677,-0.07363107781851097,-0.018407769454627854,-0.24083498369804568,-0.1472621556370215,0.02841614188403252,0.029873764517143367,0.011112838596682599,0.1096434925641532,0.03851996200690601,-0.03337260425200079,0.00746537316771019
19.705247014999998,0.0,0.0,-0.10690141668465268,-0.20398535632683726,-0.13853550937704992,-0.07652125083608485,-0.09284578434778296,-0.9927356941801408,1.0,1.0,0.0,-0.0,-0.0,-0.07671776931843206,0.07671776931843206,-0.0,-0.0,0.07671776931843206,0.0,-0.0,0.0,0.07671776931843206,0.0,0.4603066159105924,0.0016419515013694763,-0.11753186583518982,-0.05248274281620979,-0.0034829676151275635,0.2595245838165283,-0.10875119268894196,-0.0698162317276001,0.080654576420784,0.11012507975101471,0.0501851812005043,-0.05967969819903374,0.3164278268814087,0.2322765290737152,0.49601948261260986,0.0028539488557726145,0.09279008209705353,-0.004743105731904507,-0.040140651166439056,0.00903061032295227,-0.23505650833249092,-0.15934932231903076,0.020163644105196,0.027531269937753677,0.016735085286200047,0.10725312400609255,0.09080066252499819,0.018799223005771637,0.06815433502197266,0.0028539488557726145,0.09279008209705353,-0.004743105731904507,-0.040140651166439056,0.00903061032295227,-0.23505650833249092,-0.15934932231903076,0.020163644105196,0.027531269937753677,0.016735085286200047,0.10725312400609255,0.09080066252499819,0.0,0.06815433502197266,0.0017385115596037365,0.09720802164369324,0.009909924951284677,-0.07516505860639633,-0.01687378866674205,-0.24083498369804568,-0.15033011721279266,0.029950122671918322,0.029873764517143367,0.011112838596682599,0.1096434925641532,0.03851996200690601,-0.03337260425200079,0.016669257895024117
19.72528545,0.0,0.0,-0.13744467859455345,-0.16144295580947549,-0.19744037163185854,-0.07957800044685025,-0.09080053897140605,-0.9926845440357089,1.0,1.0,0.0,-0.0,-0.0,-0.0,0.07671776931843206,-0.0,-0.15343553863686413,0.07671776931843206,0.0,-0.0,0.0,0.0,0.0,0.4603066159105924,0.002191297709941864,-0.10974541306495667,-0.0407903790473938,-0.0018774867057800293,0.2630299925804138,-0.09131874144077301,-0.05804799869656563,0.07812502235174179,0.11014245450496674,0.04731421545147896,-0.0582696907222271,0.30667057633399963,0.2171170711517334,0.4569336175918579,0.0029912854079157114,0.09473669528961182,-0.0018200147897005081,-0.03973928093910217,0.009906962513923645,-0.23069839552044868,-0.15640726406127214,0.019531255587935448,0.027535613626241684,0.01601734384894371,0.10760562587529421,0.08836134988814592,0.015009358525276184,0.05838286876678467,0.0029912854079157114,0.09473669528961182,-0.0018200147897005081,-0.03973928093910217,0.009906962513923645,-0.23069839552044868,-0.15640726406127214,0.019531255587935448,0.027535613626241684,0.01601734384894371,0.10760562587529421,0.08836134988814592,0.0,0.05838286876678467,0.0017385115596037365,0.09720802164369324,0.009909924951284677,-0.07363107781851097,-0.015339807878856249,-0.24083498369804568,-0.15033011721279266,0.031484103459804125,0.029873764517143367,0.011112838596682599,0.1096434925641532,0.03851996200690601,-0.03337260425200079,0.02433916183445224
19.745374274,0.0,0.0,-0.09708393964218458,-0.1559888018969932,-0.45814892864851153,-0.08161255831514962,-0.08977381414666458,-0.9926127405080072,1.0,1.0,0.07671776931843206,-0.0,-0.0,0.15343553863686413,-0.0,-0.0,-0.0,0.0,0.0,-0.0,0.0,0.0,0.0,0.30687107727372825,0.00516279973089695,-0.1026231199502945,-0.010979654267430305,-0.005249232053756714,0.255170613527298,-0.0795411691069603,-0.0477367639541626,0.08015219122171402,0.11115603148937225,0.032622016966342926,-0.04998758062720299,0.26859039068222046,0.2220470905303955,0.45296210050582886,0.003734160913154483,0.09651726856827736,0.005632666405290365,-0.040582217276096344,0.007942117750644684,-0.2277540024369955,-0.1538294553756714,0.020038047805428505,0.027789007872343063,0.012344294227659702,0.10967615339905024,0.07884130347520113,0.01624186336994171,0.057389989495277405,0.003734160913154483,0.09651726856827736,0.005632666405290365,-0.040582217276096344,0.007942117750644684,-0.2277540024369955,-0.1538294553756714,0.020038047805428505,0.027789007872343063,0.012344294227659702,0.10967615339905024,0.07884130347520113,0.0,0.057389989495277405,0.003272492347489539,0.09720802164369324,0.009909924951284677,-0.06902913545485401,-0.015339807878856249,-0.24083498369804568,-0.15186409800067846,0.031484103459804125,0.03140774530502917,0.011112838596682599,0.1096434925641532,0.03851996200690601,-0.03337260425200079,0.030475084985994563
19.765642690999982,0.0,0.0,-0.10035643198967395,-0.17562375598192942,-0.38942658935123475,-0.08365391700346876,-0.08773459588168674,-0.9926251371265257,1.0,1.0,0.07671776931843206,-0.0,-0.0,0.2301533079552962,0.07671776931843206,-0.0,-0.07671776931843206,0.0,0.07671776931843206,-0.0,0.0,0.07671776931843206,0.07671776931843206,0.2301533079552962,0.014605442062020302,-0.09857815504074097,-0.005094071850180626,-0.0035341978073120117,0.2565060257911682,-0.07114262133836746,-0.038398921489715576,0.0861499160528183,0.11347365379333496,0.02603740617632866,-0.046449415385723114,0.2555685341358185,0.23024016618728638,0.4474028944969177,0.006094821495935321,0.09752850979566574,0.007104062009602785,-0.04015345871448517,0.008275970816612244,-0.2256543654948473,-0.15149499475955963,0.021537479013204575,0.02836841344833374,0.010698141530156136,0.1105606947094202,0.07558583933860064,0.01829013228416443,0.05600018799304962,0.006094821495935321,0.09752850979566574,0.007104062009602785,-0.04015345871448517,0.008275970816612244,-0.2256543654948473,-0.15149499475955963,0.021537479013204575,0.02836841344833374,0.010698141530156136,0.1105606947094202,0.07558583933860064,0.0,0.05600018799304962,0.004806473135374897,0.09567404085580788,0.009909924951284677,-0.06442719309119704,-0.01380582709097089,-0.24083498369804568,-0.15186409800067846,0.031484103459804125,0.03140774530502917,0.011112838596682599,0.1096434925641532,0.04005394279479181,-0.03183862346411543,0.03354304656176617
19.78549719999998,0.0,0.0,-0.15162547876700738,-0.05781403147231216,-0.16144295580947549,-0.0856946131887119,-0.0856946131887119,-0.9926292694359129,1.0,1.0,0.0,-0.15343553863686413,-0.0,0.2301533079552962,-0.0,-0.0,-0.0,0.0,0.07671776931843206,-0.0,0.0,0.07671776931843206,0.0,0.15343553863686413,0.020397042855620384,-0.10000276565551758,-0.011784646660089493,0.013922706246376038,0.261423259973526,-0.07161663472652435,-0.028569042682647705,0.09418773651123047,0.1296570748090744,0.02789805829524994,-0.04399298503994942,0.2778583765029907,0.21472704410552979,0.4199593663215637,0.0075427216943353415,0.09717235714197159,0.005431418307125568,-0.035789232701063156,0.00950527936220169,-0.22577286884188652,-0.14903752505779266,0.023546934127807617,0.0324142687022686,0.011163304559886456,0.11117480229586363,0.0811582999303937,0.01441185176372528,0.04913930594921112,0.0075427216943353415,0.09717235714197159,0.005431418307125568,-0.035789232701063156,0.00950527936220169,-0.22577286884188652,-0.14903752505779266,0.023546934127807617,0.0324142687022686,0.011163304559886456,0.11117480229586363,0.0811582999303937,0.0,0.04913930594921112,0.004806473135374897,0.09260607928003672,0.009909924951284677,-0.05982525072754008,-0.01380582709097089,-0.24083498369804568,-0.15186409800067846,0.031484103459804125,0.03294172609291497,0.011112838596682599,0.1096434925641532,0.04312190437056297,-0.03183862346411543,0.03507702734965153
19.80551545,0.0,0.0,-0.16689710972195776,-0.02181661564992912,-0.2628902185816459,-0.08571669552614757,-0.08265538497164229,-0.9928850565112093,1.0,1.0,0.0,-0.07671776931843206,-0.0,0.15343553863686413,-0.0,-0.0,-0.0,0.0,0.0,-0.0,0.07671776931843206,0.07671776931843206,0.07671776931843206,0.0,0.029206177219748497,-0.08718544244766235,0.006538845598697662,0.035977184772491455,0.2660343050956726,-0.053761254996061325,-0.005182445049285889,0.09307047724723816,0.12608158588409424,0.018776625394821167,-0.04011927917599678,0.27552878856658936,0.17926010489463806,0.38410818576812744,0.00974500528536737,0.1003766879439354,0.010012291371822357,-0.030275613069534302,0.010658040642738342,-0.22130902390927076,-0.1431908756494522,0.02326761931180954,0.03152039647102356,0.008882946334779263,0.11214322876185179,0.08057590294629335,0.00554511696100235,0.04017651081085205,0.00974500528536737,0.1003766879439354,0.010012291371822357,-0.030275613069534302,0.010658040642738342,-0.22130902390927076,-0.1431908756494522,0.02326761931180954,0.03152039647102356,0.008882946334779263,0.11214322876185179,0.08057590294629335,0.0,0.04017651081085205,0.004806473135374897,0.09260607928003672,0.009909924951284677,-0.05829126993965428,-0.01380582709097089,-0.24083498369804568,-0.15186409800067846,0.031484103459804125,0.03294172609291497,0.011112838596682599,0.11117747335203901,0.044655885158448774,-0.030304642676229628,0.03661100813753733
19.82568288599998,0.0,0.0,-0.15707963267948966,-0.018544123302439753,-0.36324665057131983,-0.0857309800649166,-0.08062794553724299,-0.993050519085284,1.0,1.0,0.0,-0.0,-0.0,0.07671776931843206,-0.0,-0.0,-0.0,0.0,0.0,-0.0,0.07671776931843206,0.15343553863686413,0.0,0.07671776931843206,0.03314974159002304,-0.08383500576019287,0.024232778698205948,0.04255663603544235,0.27390599250793457,-0.040558867156505585,0.011460691690444946,0.08652317523956299,0.1132887452840805,0.008899372071027756,-0.031432442367076874,0.25273367762565613,0.15811719000339508,0.3642556071281433,0.010730896377936006,0.10121429711580276,0.014435774646699429,-0.028630750253796577,0.012625962495803833,-0.21800842694938183,-0.1390300914645195,0.021630793809890747,0.028322186321020126,0.00641363300383091,0.11431493796408176,0.07487712521106005,0.0002593882381916046,0.03521336615085602,0.010730896377936006,0.10121429711580276,0.014435774646699429,-0.028630750253796577,0.012625962495803833,-0.21800842694938183,-0.1390300914645195,0.021630793809890747,0.028322186321020126,0.00641363300383091,0.11431493796408176,0.07487712521106005,0.0,0.03521336615085602,0.004806473135374897,0.09260607928003672,0.009909924951284677,-0.05675728915176892,-0.01380582709097089,-0.24083498369804568,-0.15186409800067846,0.031484103459804125,0.03294172609291497,0.011112838596682599,0.11424543492781017,0.04618986594633413,-0.030304642676229628,0.03661100813753733
19.845684914000003,0.0,0.0,-0.14944381720201447,0.017453292519943295,-0.3108867730114899,-0.08465241648206337,-0.07751305605586525,-0.993391007873852,1.0,1.0,0.07671776931843206,-0.0,-0.0,0.07671776931843206,-0.0,-0.0,-0.0,0.0,0.0,-0.0,0.07671776931843206,0.0,0.0,0.0,0.03553567826747894,-0.08229941129684448,0.02546871080994606,0.0408143624663353,0.27714473009109497,-0.03511660918593407,0.02593277394771576,0.0856734961271286,0.10460139811038971,0.0031932275742292404,-0.030021388083696365,0.23719358444213867,0.1476447880268097,0.35491275787353516,0.011327380547299981,0.10159819573163986,0.014744757674634457,-0.02906631864607334,0.013435646891593933,-0.21664786245673895,-0.1354120709002018,0.02141837403178215,0.026150349527597427,0.004987096879631281,0.11466770153492689,0.07099210191518068,-0.0023587122559547424,0.03287765383720398,0.011327380547299981,0.10159819573163986,0.014744757674634457,-0.02906631864607334,0.013435646891593933,-0.21664786245673895,-0.1354120709002018,0.02141837403178215,0.026150349527597427,0.004987096879631281,0.11466770153492689,0.07099210191518068,-0.0023587122559547424,0.03287765383720398,0.0063404539232607,0.09107209849215092,0.009909924951284677,-0.05522330836388312,-0.01380582709097089,-0.24083498369804568,-0.15033011721279266,0.031484103459804125,0.03294172609291497,0.011112838596682599,0.11424543492781017,0.047723846734219935,-0.030304642676229628,0.03661100813753733
19.865761053,0.0,0.0,-0.15162547876700738,0.04145156973486533,-0.2476185876266955,-0.08365274168447547,-0.07549149859330712,-0.993631346349745,1.0,1.0,0.0,-0.07671776931843206,-0.0,0.15343553863686413,0.07671776931843206,-0.0,0.07671776931843206,0.0,0.0,-0.07671776931843206,0.07671776931843206,0.07671776931843206,0.0,0.0,0.03854724019765854,-0.07108849287033081,0.035112474113702774,0.05334862321615219,0.2802271842956543,-0.02309979870915413,0.05017714202404022,0.09530564397573471,0.08948352932929993,-0.010083010420203209,-0.024875294417142868,0.21275895833969116,0.13143955171108246,0.34347596764564514,0.01208027102984488,0.10440092533826828,0.017155698500573635,-0.025932753458619118,0.014206260442733765,-0.21364365983754396,-0.12935097888112068,0.023826410993933678,0.02237088233232498,0.0016680373810231686,0.11595422495156527,0.0648834453895688,-0.006410021334886551,0.030018456280231476,0.01208027102984488,0.10440092533826828,0.017155698500573635,-0.025932753458619118,0.014206260442733765,-0.21364365983754396,-0.12935097888112068,0.023826410993933678,0.02237088233232498,0.0016680373810231686,0.11595422495156527,0.0648834453895688,-0.006410021334886551,0.030018456280231476,0.0063404539232607,0.09107209849215092,0.009909924951284677,-0.05062136600022615,-0.012271846303085088,-0.24083498369804568,-0.1487961364249073,0.031484103459804125,0.03294172609291497,0.009578857808796797,0.11577941571569553,0.04925782752210574,-0.030304642676229628,0.03507702734965153
19.885840451999997,0.0,0.0,-0.1341721862470641,0.08835729338221293,-0.08835729338221293,-0.08163860361362961,-0.07347474325226665,-0.9939499989959405,1.0,1.0,0.0,-0.0,-0.07671776931843206,0.2301533079552962,0.15343553863686413,-0.0,0.07671776931843206,0.0,0.0,-0.15343553863686413,0.07671776931843206,0.07671776931843206,0.0,-0.07671776931843206,0.03950580209493637,-0.06544913351535797,0.02446362003684044,0.06283348798751831,0.28447961807250977,-0.01814734935760498,0.07325737178325653,0.09687747061252594,0.07553626596927643,-0.018460948020219803,-0.02317247912287712,0.20757322013378143,0.11445046216249466,0.32681089639663696,0.012319911504164338,0.10581076517701149,0.014493484981358051,-0.023561537265777588,0.015269368886947632,-0.21240554749965668,-0.1235809214413166,0.024219367653131485,0.018884066492319107,-0.0004264470189809799,0.1163799287751317,0.06358701083809137,-0.0106572937220335,0.02585218846797943,0.012319911504164338,0.10581076517701149,0.014493484981358051,-0.023561537265777588,0.015269368886947632,-0.21240554749965668,-0.1235809214413166,0.024219367653131485,0.018884066492319107,-0.0004264470189809799,0.1163799287751317,0.06358701083809137,-0.0106572937220335,0.02585218846797943,0.0063404539232607,0.09107209849215092,0.006841963375513516,-0.04755340442445499,-0.009203884727313927,-0.24083498369804568,-0.1487961364249073,0.031484103459804125,0.03294172609291497,0.006510896233025636,0.11884737729146713,0.050791808309991096,-0.030304642676229628,0.03507702734965153
19.905870147,0.0,0.0,-0.1407171709420428,0.09490227807719166,-0.10362892433716332,-0.08063672342061995,-0.07145026125877718,-0.9941793495149852,1.0,1.0,0.0,-0.0,-0.07671776931843206,0.15343553863686413,0.07671776931843206,-0.0,-0.0,0.0,0.0,-0.07671776931843206,0.07671776931843206,0.07671776931843206,0.0,0.0,0.04500260949134827,-0.060270775109529495,0.029975157231092453,0.07354715466499329,0.2895292639732361,-0.01643591746687889,0.0914296805858612,0.09585627913475037,0.06659744679927826,-0.02415647730231285,-0.02206999994814396,0.19588667154312134,0.10069430619478226,0.315129816532135,0.013694113353267312,0.10710535477846861,0.015871369279921055,-0.020883120596408844,0.01653178036212921,-0.21197768952697515,-0.11903784424066544,0.02396406978368759,0.016649361699819565,-0.001850329339504242,0.11665554856881499,0.06066537369042635,-0.014096332713961601,0.022931918501853943,0.013694113353267312,0.10710535477846861,0.015871369279921055,-0.020883120596408844,0.01653178036212921,-0.21197768952697515,-0.11903784424066544,0.02396406978368759,0.016649361699819565,-0.001850329339504242,0.11665554856881499,0.06066537369042635,-0.014096332713961601,0.022931918501853943,0.0063404539232607,0.09107209849215092,0.005307982587627713,-0.04601942363656919,-0.007669903939428124,-0.24083498369804568,-0.1487961364249073,0.031484103459804125,0.03294172609291497,0.004976915445140277,0.11884737729146713,0.050791808309991096,-0.030304642676229628,0.03507702734965153
19.92595619299999,0.0,0.0,-0.1308996938995747,0.08617563181722002,-0.10471975511965978,-0.07955320433048801,-0.06935407557016904,-0.9944150541311002,1.0,1.0,0.0,-0.0,-0.07671776931843206,0.07671776931843206,0.07671776931843206,-0.0,0.07671776931843206,0.0,0.0,-0.0,0.0,0.0,0.0,0.0,0.040155813097953796,-0.06444583833217621,0.028584454208612442,0.07717018574476242,0.29306578636169434,-0.01627529039978981,0.09772545099258423,0.09857301414012909,0.06479644775390625,-0.031241707503795624,-0.01782560721039772,0.18739262223243713,0.10157236456871033,0.31780973076820374,0.012482414254918694,0.10606158897280693,0.015523693524301052,-0.01997736282646656,0.017415910959243774,-0.21193753276020288,-0.11746390163898468,0.024643253535032272,0.016199111938476562,-0.003621636889874935,0.11771664675325155,0.0585418613627553,-0.013876818120479584,0.023601897060871124,0.012482414254918694,0.10606158897280693,0.015523693524301052,-0.01997736282646656,0.017415910959243774,-0.21193753276020288,-0.11746390163898468,0.024643253535032272,0.016199111938476562,-0.003621636889874935,0.11771664675325155,0.0585418613627553,-0.013876818120479584,0.023601897060871124,0.0063404539232607,0.09107209849215092,0.005307982587627713,-0.04141748127291223,-0.006135923151542766,-0.24083498369804568,-0.1472621556370215,0.031484103459804125,0.03294172609291497,0.004976915445140277,0.11884737729146713,0.050791808309991096,-0.030304642676229628,0.032009065773880366
19.946249813999998,0.0,0.0,-0.1538071403320003,0.09272061651219876,0.00545415391248228,-0.07754189741879451,-0.06631872805554793,-0.9947809208332191,1.0,1.0,0.0,-0.0,-0.07671776931843206,0.2301533079552962,-0.0,-0.0,0.2301533079552962,0.0,0.0,-0.0,0.07671776931843206,0.0,0.0,-0.15343553863686413,0.043204210698604584,-0.06220613792538643,0.0231950581073761,0.08652545511722565,0.2942022681236267,-0.004265725612640381,0.11493726074695587,0.10263342410326004,0.057828981429338455,-0.03848852962255478,-0.016136854887008667,0.18103854358196259,0.08959618955850601,0.3089122176170349,0.013244513655081391,0.10662151407450438,0.014176344498991966,-0.017638545483350754,0.017700031399726868,-0.20893514156341553,-0.11316094920039177,0.02565835602581501,0.014457245357334614,-0.005433342419564724,0.11813883483409882,0.05695334170013666,-0.016870861873030663,0.02137751877307892,0.013244513655081391,0.10662151407450438,0.014176344498991966,-0.017638545483350754,0.017700031399726868,-0.20893514156341553,-0.11316094920039177,0.02565835602581501,0.014457245357334614,-0.005433342419564724,0.11813883483409882,0.05695334170013666,-0.016870861873030663,0.02137751877307892,0.0063404539232607,0.08953811770426512,0.0037740017997419106,-0.038349519697141066,-0.006135923151542766,-0.24083498369804568,-0.14266021327336453,0.031484103459804125,0.03294172609291497,0.004976915445140277,0.12038135807935249,0.050791808309991096,-0.030304642676229628,0.028941104198109205
19.96616015699999,0.0,0.0,-0.17016960206944712,0.09490227807719166,0.02181661564992912,-0.07654280714543676,-0.06327538724022772,-0.9950564928906779,1.0,1.0,0.0,-0.07671776931843206,-0.0,0.15343553863686413,0.15343553863686413,-0.0,0.15343553863686413,0.0,0.0,-0.0,0.0,0.0,0.0,-0.15343553863686413,0.04934040457010269,-0.05484746769070625,0.024462152272462845,0.09633294492959976,0.29581785202026367,0.012678660452365875,0.12853993475437164,0.10276003181934357,0.052293676882982254,-0.04088697209954262,-0.015911608934402466,0.17462186515331268,0.07977215200662613,0.2962267994880676,0.014778562122955918,0.10846118163317442,0.014493118040263653,-0.015186673030257225,0.01810392737388611,-0.20469904504716396,-0.10976028069853783,0.02569000795483589,0.013073419220745564,-0.006032953038811684,0.11819514632225037,0.055349172092974186,-0.019326871261000633,0.018206164240837097,0.014778562122955918,0.10846118163317442,0.014493118040263653,-0.015186673030257225,0.01810392737388611,-0.20469904504716396,-0.10976028069853783,0.02569000795483589,0.013073419220745564,-0.006032953038811684,0.11819514632225037,0.055349172092974186,-0.019326871261000633,0.018206164240837097,0.0063404539232607,0.08953811770426512,0.0037740017997419106,-0.03681553890925526,-0.003067961575771161,-0.24083498369804568,-0.13959225169759337,0.031484103459804125,0.03294172609291497,0.004976915445140277,0.12038135807935249,0.050791808309991096,-0.028770661888343825,0.027407123410223402
19.986258110999984,0.0,0.0,-0.17998707911191522,0.08290313946973066,0.03381575425739013,-0.07445611842079157,-0.059156916005560424,-0.9954681038177066,1.0,1.0,0.0,-0.0,-0.0,0.07671776931843206,0.07671776931843206,0.07671776931843206,0.15343553863686413,0.0,0.0,-0.0,0.0,0.0,0.07671776931843206,-0.15343553863686413,0.04905794560909271,-0.05418292060494423,0.026947062462568283,0.11077376455068588,0.2934862971305847,0.018211953341960907,0.14055484533309937,0.10604564100503922,0.0502617172896862,-0.04816557839512825,-0.014935269951820374,0.17377835512161255,0.07587207853794098,0.29709893465042114,0.014707947382703424,0.10862731840461493,0.015114345587790012,-0.011576468124985695,0.01752103865146637,-0.2033157218247652,-0.1067565530538559,0.026511410251259804,0.01256542932242155,-0.007852604612708092,0.11843923106789589,0.05513829458504915,-0.02030188962817192,0.018424198031425476,0.014707947382703424,0.10862731840461493,0.015114345587790012,-0.011576468124985695,0.01752103865146637,-0.2033157218247652,-0.1067565530538559,0.026511410251259804,0.01256542932242155,-0.007852604612708092,0.11843923106789589,0.05513829458504915,-0.02030188962817192,0.018424198031425476,0.0063404539232607,0.08953811770426512,0.0037740017997419106,-0.0337475773334841,-0.0015339807878858025,-0.23930100291015988,-0.1365242901218222,0.031484103459804125,0.03140774530502917,0.004976915445140277,0.12038135807935249,0.050791808309991096,-0.028770661888343825,0.0258731426223376
20.006680676000002,0.0,0.0,-0.16689710972195776,0.06544984694978735,0.003272492347489368,-0.07345466617406465,-0.0561112033274105,-0.9957188081373208,1.0,1.0,0.0,-0.0,-0.07671776931843206,0.07671776931843206,0.07671776931843206,-0.0,0.15343553863686413,0.0,-0.07671776931843206,-0.0,0.0,0.0,0.0,-0.07671776931843206,0.04573947936296463,-0.05527573451399803,0.02185831218957901,0.10765045136213303,0.29421448707580566,0.025739341974258423,0.15013206005096436,0.1004701778292656,0.045823510736227036,-0.050883740186691284,-0.013304155319929123,0.16225692629814148,0.07302679866552353,0.2881373167037964,0.013878330821171403,0.10835411492735147,0.013842158019542694,-0.012357296422123909,0.017703086137771606,-0.20143387466669083,-0.10436224937438965,0.0251175444573164,0.011455877684056759,-0.00853214506059885,0.1188470097258687,0.052257937379181385,-0.021013209596276283,0.016183793544769287,0.013878330821171403,0.10835411492735147,0.013842158019542694,-0.012357296422123909,0.017703086137771606,-0.20143387466669083,-0.10436224937438965,0.0251175444573164,0.011455877684056759,-0.00853214506059885,0.1188470097258687,0.052257937379181385,-0.021013209596276283,0.016183793544769287,0.0063404539232607,0.08953811770426512,0.0022400210118565522,-0.03067961575771294,-0.0,-0.23930100291015988,-0.1334563285460506,0.031484103459804125,0.03140774530502917,0.004976915445140277,0.12038135807935249,0.050791808309991096,-0.028770661888343825,0.02433916183445224
20.026487944999985,0.0,0.0,-0.15489797111449674,0.06217735460229799,0.018544123302439753,-0.07346693991783358,-0.05305945660732426,-0.9958851855528553,1.0,1.0,0.0,-0.0,-0.0,0.15343553863686413,-0.0,-0.0,0.15343553863686413,0.0,0.0,-0.07671776931843206,0.0,0.0,0.0,0.0,0.043023526668548584,-0.057303790003061295,0.02561696246266365,0.10787283629179001,0.2961801290512085,0.02590995281934738,0.15654057264328003,0.1014670878648758,0.04350464418530464,-0.05650937557220459,-0.012775853276252747,0.15663889050483704,0.0763743445277214,0.28934556245803833,0.013199342647567391,0.10784710105508566,0.014781820587813854,-0.012301700189709663,0.018194496631622314,-0.2013912219554186,-0.10276012122631073,0.02536677196621895,0.01087616104632616,-0.009938553906977177,0.1189790852367878,0.050853428430855274,-0.020176323130726814,0.016485854983329773,0.013199342647567391,0.10784710105508566,0.014781820587813854,-0.012301700189709663,0.018194496631622314,-0.2013912219554186,-0.10276012122631073,0.02536677196621895,0.01087616104632616,-0.009938553906977177,0.1189790852367878,0.050853428430855274,-0.020176323130726814,0.016485854983329773,0.0063404539232607,0.08953811770426512,0.0022400210118565522,-0.027611654181941336,-0.0,-0.23930100291015988,-0.13038836697027945,0.031484103459804125,0.03140774530502917,0.0034429346572544747,0.12038135807935249,0.050791808309991096,-0.028770661888343825,0.02433916183445224
20.046482881000003,0.0,0.0,-0.21489366415180183,0.06872233929727672,0.04690572364734761,-0.07247063950666466,-0.04797352192694704,-0.9962161149085171,1.0,1.0,0.0,-0.0,-0.0,0.15343553863686413,0.07671776931843206,-0.0,0.15343553863686413,0.0,0.0,-0.0,0.0,0.0,0.0,0.0,0.04634749889373779,-0.05858185514807701,0.02235911786556244,0.11860662698745728,0.2933981418609619,0.029002271592617035,0.16358357667922974,0.10293538868427277,0.052448492497205734,-0.06395034492015839,-0.009918594732880592,0.16432619094848633,0.07457982748746872,0.2788970470428467,0.014030335703864694,0.10752758476883173,0.013967359438538551,-0.009618252515792847,0.01749899983406067,-0.20061814226210117,-0.1009993702173233,0.02573384717106819,0.013112123124301434,-0.011798796243965626,0.11969339987263083,0.0527752535417676,-0.020624952390789986,0.01387372612953186,0.014030335703864694,0.10752758476883173,0.013967359438538551,-0.009618252515792847,0.01749899983406067,-0.20061814226210117,-0.1009993702173233,0.02573384717106819,0.013112123124301434,-0.011798796243965626,0.11969339987263083,0.0527752535417676,-0.020624952390789986,0.01387372612953186,0.0063404539232607,0.08953811770426512,0.0022400210118565522,-0.026077673394055978,0.003067961575771161,-0.23930100291015988,-0.12732040539450828,0.031484103459804125,0.03140774530502917,0.0034429346572544747,0.12038135807935249,0.050791808309991096,-0.028770661888343825,0.02280518104656644
20.066523168000003,0.0,0.0,-0.19853120241435498,0.05890486225480862,0.05235987755982989,-0.07240729933854621,-0.04487212916754977,-0.9963652317430937,1.0,1.0,0.0,-0.0,-0.0,0.15343553863686413,0.15343553863686413,0.07671776931843206,0.07671776931843206,0.0,0.0,-0.0,0.0,0.0,0.0,-0.15343553863686413,0.045703426003456116,-0.05691571906208992,0.022732608020305634,0.12329085171222687,0.2924339771270752,0.03130899369716644,0.16726863384246826,0.10094795376062393,0.048507872968912125,-0.06634646654129028,-0.011114569380879402,0.16048181056976318,0.07713596522808075,0.27408909797668457,0.013869317481294274,0.1079441187903285,0.01406073197722435,-0.008447196334600449,0.01725795865058899,-0.20004146173596382,-0.10007810592651367,0.025236988440155983,0.012126968242228031,-0.0123978266492486,0.11939440621063113,0.05181415844708681,-0.019985917955636978,0.012671738862991333,0.013869317481294274,0.1079441187903285,0.01406073197722435,-0.008447196334600449,0.01725795865058899,-0.20004146173596382,-0.10007810592651367,0.025236988440155983,0.012126968242228031,-0.0123978266492486,0.11939440621063113,0.05181415844708681,-0.019985917955636978,0.012671738862991333,0.0063404539232607,0.08953811770426512,0.0022400210118565522,-0.024543692606170175,0.004601942363656963,-0.23776702212227452,-0.12578642460662248,0.031484103459804125,0.02833978372925801,0.0034429346572544747,0.12038135807935249,0.050791808309991096,-0.028770661888343825,0.019737219470795278
20.086577751999982,0.0,0.0,-0.20289452554434081,0.07853981633974483,0.03490658503988659,-0.07140519236022436,-0.04080296706298534,-0.996612470513417,1.0,1.0,0.0,-0.0,-0.0,0.07671776931843206,0.07671776931843206,-0.0,0.15343553863686413,0.0,-0.15343553863686413,-0.0,0.0,0.0,0.0,-0.15343553863686413,0.04600401967763901,-0.053293194621801376,0.024024341255426407,0.12609857320785522,0.2879093587398529,0.042543455958366394,0.17477920651435852,0.09996484220027924,0.04668760672211647,-0.06604388356208801,-0.012038787826895714,0.1497330218553543,0.07374142855405807,0.2755519151687622,0.013944465899839997,0.10884974990040064,0.014383665286004543,-0.007745265960693359,0.016126804053783417,-0.19723284617066383,-0.09820046275854111,0.02499121055006981,0.011671901680529118,-0.012322180904448032,0.11916335159912705,0.04912696126848459,-0.020834552124142647,0.013037443161010742,0.013944465899839997,0.10884974990040064,0.014383665286004543,-0.007745265960693359,0.016126804053783417,-0.19723284617066383,-0.09820046275854111,0.02499121055006981,0.011671901680529118,-0.012322180904448032,0.11916335159912705,0.04912696126848459,-0.020834552124142647,0.013037443161010742,0.0063404539232607,0.08953811770426512,0.0022400210118565522,-0.021475731030399015,0.006135923151542766,-0.23776702212227452,-0.12271846303085132,0.031484103459804125,0.02833978372925801,0.0034429346572544747,0.12038135807935249,0.050791808309991096,-0.028770661888343825,0.016669257895024117
20.106599372999995,0.0,0.0,-0.2181661564992912,0.08617563181722002,0.06654067773228381,-0.06938598507397778,-0.03673375680387058,-0.99691334437171,1.0,1.0,0.0,-0.0,-0.0,0.15343553863686413,0.15343553863686413,-0.0,0.07671776931843206,0.0,0.0,-0.0,0.0,0.0,0.0,-0.07671776931843206,0.03652338683605194,-0.05424124374985695,0.018531594425439835,0.12413807213306427,0.2914777994155884,0.04990875720977783,0.1807062327861786,0.09961868822574615,0.04328780993819237,-0.06934639811515808,-0.012381507083773613,0.14839641749858856,0.07159589976072311,0.27564218640327454,0.01157430768944323,0.10861273761838675,0.0130104785785079,-0.008235391229391098,0.017018914222717285,-0.19539152085781097,-0.09671870619058609,0.02490467205643654,0.010821952484548092,-0.01314780954271555,0.11907767178490758,0.048792810179293156,-0.021370934322476387,0.013060010969638824,0.01157430768944323,0.10861273761838675,0.0130104785785079,-0.008235391229391098,0.017018914222717285,-0.19539152085781097,-0.09671870619058609,0.02490467205643654,0.010821952484548092,-0.01314780954271555,0.11907767178490758,0.048792810179293156,-0.021370934322476387,0.013060010969638824,0.004806473135374897,0.08953811770426512,0.0022400210118565522,-0.018407769454627854,0.009203884727313927,-0.23776702212227452,-0.12118448224296552,0.031484103459804125,0.02833978372925801,0.0034429346572544747,0.12038135807935249,0.050791808309991096,-0.028770661888343825,0.015135277107138315
20.127086677999984,0.0,0.0,-0.2454369260617026,0.08835729338221293,0.07963064712224129,-0.0683823365885938,-0.031639588570841905,-0.9971573559262109,1.0,1.0,-0.07671776931843206,-0.0,-0.0,0.07671776931843206,0.15343553863686413,0.07671776931843206,0.15343553863686413,0.0,0.0,-0.0,0.0,0.0,0.0,-0.07671776931843206,0.03305494785308838,-0.05534558370709419,0.01641182228922844,0.13040608167648315,0.2851581871509552,0.055896058678627014,0.18583977222442627,0.1022331491112709,0.05322933569550514,-0.0721655935049057,-0.008098356425762177,0.155653715133667,0.07130138576030731,0.2729901671409607,0.01070719794370234,0.10833665262907743,0.012480535544455051,-0.006668388843536377,0.01543901115655899,-0.19389469549059868,-0.09543532133102417,0.025558287277817726,0.013307333923876286,-0.013852608390152454,0.12014845944941044,0.05060713458806276,-0.021444562822580338,0.012397006154060364,0.01070719794370234,0.10833665262907743,0.012480535544455051,-0.006668388843536377,0.01543901115655899,-0.19389469549059868,-0.09543532133102417,0.025558287277817726,0.013307333923876286,-0.013852608390152454,0.12014845944941044,0.05060713458806276,-0.021444562822580338,0.012397006154060364,0.003272492347489539,0.08953811770426512,0.0022400210118565522,-0.01687378866674205,0.012271846303085088,-0.23623304133438872,-0.11811652066719436,0.031484103459804125,0.02833978372925801,0.0034429346572544747,0.12038135807935249,0.050791808309991096,-0.028770661888343825,0.015135277107138315
20.14684368799999,0.0,0.0,-0.24980024919168842,0.06435901616729091,0.1189005552921137,-0.06629254403281365,-0.02651701761312546,-0.9974478163706423,1.0,1.0,-0.07671776931843206,-0.0,-0.0,0.15343553863686413,0.07671776931843206,-0.0,0.07671776931843206,0.0,0.0,0.07671776931843206,0.0,0.0,0.0,0.0,0.030796410515904427,-0.049417492002248764,0.01337219774723053,0.12757472693920135,0.27570784091949463,0.06716402620077133,0.19264334440231323,0.09582970291376114,0.05150631442666054,-0.06988149881362915,-0.010354837402701378,0.1522495299577713,0.06893032044172287,0.2681295871734619,0.010142563609406352,0.10981867555528879,0.011720629408955574,-0.007376227527856827,0.013076424598693848,-0.1910777036100626,-0.09373442828655243,0.023957425728440285,0.012876578606665134,-0.013281584717333317,0.11958433920517564,0.04975608829408884,-0.022037329152226448,0.011181861162185669,0.010142563609406352,0.10981867555528879,0.011720629408955574,-0.007376227527856827,0.013076424598693848,-0.1910777036100626,-0.09373442828655243,0.023957425728440285,0.012876578606665134,-0.013281584717333317,0.11958433920517564,0.04975608829408884,-0.022037329152226448,0.011181861162185669,0.003272492347489539,0.08953811770426512,0.0022400210118565522,-0.01380582709097089,0.01380582709097089,-0.23623304133438872,-0.11658253987930856,0.031484103459804125,0.026805802941372206,0.004976915445140277,0.11884737729146713,0.050791808309991096,-0.028770661888343825,0.015135277107138315
20.16683667999999,0.0,0.0,-0.2552544031041707,0.061086523819801536,0.1341721862470641,-0.06528501903099446,-0.021421646869545057,-0.997636697067384,1.0,1.0,0.0,-0.0,-0.0,0.15343553863686413,0.07671776931843206,0.15343553863686413,0.07671776931843206,0.0,-0.07671776931843206,-0.07671776931843206,-0.15343553863686413,0.0,0.0,0.0,0.02657652087509632,-0.05042000487446785,0.011388547718524933,0.13264593482017517,0.28091681003570557,0.0741216391324997,0.19382330775260925,0.09909560531377792,0.04753010347485542,-0.07693662494421005,-0.010050065815448761,0.151031494140625,0.06820585578680038,0.2716091275215149,0.009087591199204326,0.10956804733723402,0.011224716901779175,-0.006108425557613373,0.014378666877746582,-0.1893383003771305,-0.09343943744897842,0.02477390132844448,0.011882525868713856,-0.015045366249978542,0.11966053210198879,0.049451579339802265,-0.02221844531595707,0.012051746249198914,0.009087591199204326,0.10956804733723402,0.011224716901779175,-0.006108425557613373,0.014378666877746582,-0.1893383003771305,-0.09343943744897842,0.02477390132844448,0.011882525868713856,-0.015045366249978542,0.11966053210198879,0.049451579339802265,-0.02221844531595707,0.012051746249198914,0.003272492347489539,0.09107209849215092,0.0022400210118565522,-0.010737865515199285,0.01687378866674205,-0.23316507975861755,-0.1150485590914232,0.031484103459804125,0.023737841365601045,0.0034429346572544747,0.11731339650358133,0.050791808309991096,-0.028770661888343825,0.015135277107138315
20.186916855999982,0.0,0.0,-0.3043417883165112,0.02181661564992912,0.08072147790473774,-0.06529235702967857,-0.015302896178830913,-0.9977488308597755,1.0,1.0,0.0,0.15343553863686413,-0.0,0.07671776931843206,0.15343553863686413,0.07671776931843206,0.07671776931843206,0.0,-0.15343553863686413,-0.07671776931843206,0.0,0.0,0.0,0.0,0.02576562575995922,-0.03908943012356758,0.016146749258041382,0.1311333179473877,0.26355013251304626,0.08047471195459366,0.20510739088058472,0.0933411717414856,0.04592359438538551,-0.08240129798650742,-0.014851110056042671,0.1528661847114563,0.06826089322566986,0.26866084337234497,0.00888486742042005,0.11240069102495909,0.012414267286658287,-0.006486579775810242,0.010036997497081757,-0.18775003217160702,-0.09061841666698456,0.0233352929353714,0.011480898596346378,-0.016411534510552883,0.11846027104184031,0.04991025198251009,-0.0222046859562397,0.011314675211906433,0.00888486742042005,0.11240069102495909,0.012414267286658287,-0.006486579775810242,0.010036997497081757,-0.18775003217160702,-0.09061841666698456,0.0233352929353714,0.011480898596346378,-0.016411534510552883,0.11846027104184031,0.04991025198251009,-0.0222046859562397,0.011314675211906433,0.003272492347489539,0.09414006006792208,0.005307982587627713,-0.010737865515199285,0.018407769454627854,-0.2300971181828464,-0.1135145783035374,0.031484103459804125,0.022203860577715243,0.0019089538693686722,0.11577941571569553,0.050791808309991096,-0.028770661888343825,0.015135277107138315
20.207038624999996,0.0,0.0,-0.3392483733563978,0.02945243112740431,-0.017453292519943295,-0.06529725040366925,-0.00918242583801599,-0.9978236077310707,1.0,1.0,0.0,0.15343553863686413,0.2301533079552962,0.07671776931843206,-0.0,0.15343553863686413,0.07671776931843206,0.0,-0.07671776931843206,-0.0,-0.15343553863686413,0.0,0.0,0.0,0.02373824454843998,-0.03976111486554146,0.025171775370836258,0.1311665177345276,0.2616448998451233,0.08510475605726242,0.2064523994922638,0.08195666968822479,0.04861999675631523,-0.08228746801614761,-0.016762984916567802,0.15032286942005157,0.06850247830152512,0.2590707838535309,0.00837802211754024,0.11223276983946562,0.014670523814857006,-0.0064782798290252686,0.009560689330101013,-0.18659252114593983,-0.09028216451406479,0.020489167422056198,0.012154999189078808,-0.016383077017962933,0.11798230232670903,0.04927442315965891,-0.022144289687275887,0.008917160332202911,0.00837802211754024,0.11223276983946562,0.014670523814857006,-0.0064782798290252686,0.009560689330101013,-0.18659252114593983,-0.09028216451406479,0.020489167422056198,0.012154999189078808,-0.016383077017962933,0.11798230232670903,0.04927442315965891,-0.022144289687275887,0.008917160332202911,0.003272492347489539,0.09720802164369324,0.008375944163398874,-0.009203884727313927,0.018407769454627854,-0.2270291566070748,-0.11198059751565159,0.031484103459804125,0.022203860577715243,0.0019089538693686722,0.11424543492781017,0.050791808309991096,-0.028770661888343825,0.015135277107138315
20.22705261600001,0.0,0.0,-0.3327033886614191,0.0272707695624114,0.01090830782496456,-0.06428380668335325,-0.0020407557677255,-0.9979295704177694,1.0,1.0,0.0,0.07671776931843206,0.07671776931843206,-0.0,-0.0,0.15343553863686413,0.15343553863686413,0.0,0.0,-0.07671776931843206,-0.07671776931843206,0.0,0.0,0.0,0.019092055037617683,-0.03795580193400383,0.02187587320804596,0.13253018260002136,0.2596765160560608,0.09797260910272598,0.21422865986824036,0.08944087475538254,0.04029868170619011,-0.09018132835626602,-0.020495161414146423,0.1381964534521103,0.06911052763462067,0.2581110894680023,0.007216474739834666,0.11268409807235003,0.013846548274159431,-0.006137363612651825,0.009068593382835388,-0.18337555788457394,-0.08833809942007065,0.022360218688845634,0.010074670426547527,-0.018356542102992535,0.11704925820231438,0.04624281916767359,-0.021992277354002,0.00867723673582077,0.007216474739834666,0.11268409807235003,0.013846548274159431,-0.006137363612651825,0.009068593382835388,-0.18337555788457394,-0.08833809942007065,0.022360218688845634,0.010074670426547527,-0.018356542102992535,0.11704925820231438,0.04624281916767359,-0.021992277354002,0.00867723673582077,0.003272492347489539,0.09874200243157905,0.009909924951284677,-0.009203884727313927,0.018407769454627854,-0.22396119503130363,-0.10891263593988043,0.031484103459804125,0.022203860577715243,0.0003749730814833138,0.11271145413992437,0.050791808309991096,-0.027236681100458467,0.016669257895024117
20.247126958999985,0.0,0.0,-0.37306412761378793,0.006544984694978736,0.04908738521234052,-0.06428363935791417,0.0030611256837101987,-0.9979269728895247,1.0,1.0,0.0,0.15343553863686413,0.07671776931843206,-0.0,-0.0,0.2301533079552962,0.2301533079552962,-0.07671776931843206,0.0,-0.0,0.0,0.07671776931843206,0.07671776931843206,0.07671776931843206,0.02353261224925518,-0.03308595344424248,0.01774207502603531,0.1267005354166031,0.24091382324695587,0.11480041593313217,0.22456946969032288,0.0812518373131752,0.050726477056741714,-0.09372877329587936,-0.0165721382945776,0.1526278555393219,0.06990788877010345,0.25528520345687866,0.00832661404274404,0.11390156019479036,0.012813098728656769,-0.007594775408506393,0.004377920180559158,-0.1791686061769724,-0.08575289696455002,0.0203129593282938,0.012681619264185429,-0.01924340333789587,0.11803001398220658,0.04985066968947649,-0.021792937070131302,0.007970765233039856,0.00832661404274404,0.11390156019479036,0.012813098728656769,-0.007594775408506393,0.004377920180559158,-0.1791686061769724,-0.08575289696455002,0.0203129593282938,0.012681619264185429,-0.01924340333789587,0.11803001398220658,0.04985066968947649,-0.021792937070131302,0.007970765233039856,0.004806473135374897,0.1018099640073502,0.009909924951284677,-0.007669903939428124,0.018407769454627854,-0.22089323345553247,-0.10431069357622347,0.029950122671918322,0.022203860577715243,0.0003749730814833138,0.11271145413992437,0.0523257890978769,-0.027236681100458467,0.016669257895024117
20.267243560999987,0.0,0.0,-0.28579766501407144,0.004363323129985824,-0.031634092692397225,-0.06428179886431594,0.008162768109754406,-0.997898401417476,1.0,1.0,0.07671776931843206,0.07671776931843206,-0.0,0.07671776931843206,0.07671776931843206,0.2301533079552962,0.15343553863686413,0.0,-0.07671776931843206,-0.0,0.0,0.0,0.0,0.0,0.022199707105755806,-0.02775324508547783,0.019258420914411545,0.11388804018497467,0.23446018993854523,0.13107019662857056,0.23228520154953003,0.05800309032201767,0.03754602000117302,-0.08611907809972763,-0.022825131192803383,0.13202594220638275,0.0725884661078453,0.22406120598316193,0.007993387756869197,0.11523473728448153,0.013192185200750828,-0.010797899216413498,0.002764511853456497,-0.1751011610031128,-0.08382396399974823,0.014500772580504417,0.009386505000293255,-0.017340979538857937,0.11646676575765014,0.0447001913562417,-0.02112279273569584,0.000164765864610672,0.007993387756869197,0.11523473728448153,0.013192185200750828,-0.010797899216413498,0.002764511853456497,-0.1751011610031128,-0.08382396399974823,0.014500772580504417,0.009386505000293255,-0.017340979538857937,0.11646676575765014,0.0447001913562417,-0.02112279273569584,0.000164765864610672,0.004806473135374897,0.10487792558312181,0.009909924951284677,-0.007669903939428124,0.019941750242513212,-0.2147573103039897,-0.1012427320004523,0.029950122671918322,0.020669879789829884,0.0003749730814833138,0.11424543492781017,0.0523257890978769,-0.027236681100458467,0.016669257895024117
20.287331051999985,0.0,0.0,-0.20398535632683726,-0.016362461737446838,-0.08944812416470939,-0.06529425987772457,0.013262896537662803,-0.9977779087564784,1.0,1.0,0.0,0.2301533079552962,-0.0,-0.0,-0.0,0.30687107727372825,0.15343553863686413,0.0,0.0,-0.0,0.0,0.07671776931843206,0.0,0.0,0.01640998013317585,-0.024742987006902695,0.031837571412324905,0.10597707331180573,0.23760192096233368,0.14418458938598633,0.23938831686973572,0.06580080091953278,0.025243405252695084,-0.08197738975286484,-0.03326347470283508,0.11209453642368317,0.08553773909807205,0.22624069452285767,0.006545956013724208,0.11598730180412531,0.016336972825229168,-0.012775640934705734,0.0035499446094036102,-0.17182256281375885,-0.08204818516969681,0.016450200229883194,0.006310851313173771,-0.01630555745214224,0.11385717988014221,0.03971733991056681,-0.017885474488139153,0.0007096379995346069,0.006545956013724208,0.11598730180412531,0.016336972825229168,-0.012775640934705734,0.0035499446094036102,-0.17182256281375885,-0.08204818516969681,0.016450200229883194,0.006310851313173771,-0.01630555745214224,0.11385717988014221,0.03971733991056681,-0.017885474488139153,0.0007096379995346069,0.004806473135374897,0.10794588715889297,0.011443905739170479,-0.007669903939428124,0.019941750242513212,-0.20862138715244738,-0.09817477042468115,0.029950122671918322,0.020669879789829884,0.0003749730814833138,0.11271145413992437,0.05539375067364806,-0.027236681100458467,0.016669257895024117
20.307347024999984,0.0,0.0,-0.21489366415180183,-0.04145156973486533,-0.015271630954950384,-0.06529018254989287,0.017342704739815293,-0.9977156020905503,1.0,1.0,0.07671776931843206,0.07671776931843206,0.07671776931843206,-0.0,-0.0,0.30687107727372825,0.15343553863686413,0.0,0.07671776931843206,-0.0,0.0,0.07671776931843206,0.0,0.0,0.022174688056111336,-0.028042461723089218,0.028789754956960678,0.09689073264598846,0.23699042201042175,0.16098114848136902,0.24248257279396057,0.07284388691186905,0.02841777727007866,-0.07698451727628708,-0.0316728800535202,0.10281212627887726,0.09605097770690918,0.20827142894268036,0.00798713299445808,0.11516243312507868,0.015575018711388111,-0.01504722610116005,0.0033970698714256287,-0.16762342303991318,-0.0812746211886406,0.018210971727967262,0.007104444317519665,-0.015057339332997799,0.11425482854247093,0.03739673737436533,-0.01525716483592987,-0.00378267839550972,0.00798713299445808,0.11516243312507868,0.015575018711388111,-0.01504722610116005,0.0033970698714256287,-0.16762342303991318,-0.0812746211886406,0.018210971727967262,0.007104444317519665,-0.015057339332997799,0.11425482854247093,0.03739673737436533,-0.01525716483592987,-0.00378267839550972,0.0063404539232607,0.11101384873466413,0.011443905739170479,-0.007669903939428124,0.019941750242513212,-0.20401944478879042,-0.09510680884890954,0.029950122671918322,0.022203860577715243,0.0003749730814833138,0.11271145413992437,0.05539375067364806,-0.027236681100458467,0.016669257895024117
20.327452496999996,0.0,0.0,-0.19416787928436915,-0.026179938779914945,0.001090830782496456,-0.06630064776049296,0.021420209276466956,-0.9975697463040324,1.0,1.0,0.0,0.15343553863686413,-0.0,-0.0,-0.0,0.30687107727372825,0.2301533079552962,-0.07671776931843206,0.07671776931843206,-0.0,0.0,0.07671776931843206,0.0,0.07671776931843206,0.01885833777487278,-0.023297186940908432,0.02529897913336754,0.09453057497739792,0.2258506566286087,0.18163293600082397,0.2511022686958313,0.07303635030984879,0.030745700001716614,-0.07944440096616745,-0.03380925580859184,0.10091343522071838,0.10361816734075546,0.20758432149887085,0.00715804542414844,0.11634875182062387,0.014702324755489826,-0.015637265518307686,0.0006121285259723663,-0.16246047616004944,-0.07911969721317291,0.018259087577462196,0.0076864250004291534,-0.01567231025546789,0.11372073460370302,0.03692206460982561,-0.0133653674274683,-0.003954455256462097,0.00715804542414844,0.11634875182062387,0.014702324755489826,-0.015637265518307686,0.0006121285259723663,-0.16246047616004944,-0.07911969721317291,0.018259087577462196,0.0076864250004291534,-0.01567231025546789,0.11372073460370302,0.03692206460982561,-0.0133653674274683,-0.003954455256462097,0.0063404539232607,0.11101384873466413,0.011443905739170479,-0.006135923151542766,0.019941750242513212,-0.19788352163724765,-0.09050486648525302,0.02841614188403252,0.023737841365601045,0.0003749730814833138,0.11117747335203901,0.05692773146153386,-0.027236681100458467,0.018203238682909476
20.347512174000002,0.0,0.0,-0.136353847812057,-0.00545415391248228,0.02181661564992912,-0.06629761282505389,0.023459155307326764,-0.9975240821985031,1.0,1.0,0.0,0.07671776931843206,-0.0,0.07671776931843206,-0.0,0.2301533079552962,0.07671776931843206,0.0,0.0,-0.0,-0.07671776931843206,-0.07671776931843206,0.0,0.0,0.018961245194077492,-0.0199677012860775,0.025113433599472046,0.08135984092950821,0.2192181646823883,0.19832652807235718,0.260108083486557,0.06369637697935104,0.029345501214265823,-0.06856264173984528,-0.03458452597260475,0.08549696207046509,0.10440623015165329,0.19055138528347015,0.007183772278949618,0.11718112323433161,0.014655938372015953,-0.018929949030280113,-0.0010459944605827332,-0.15828707814216614,-0.07686824351549149,0.01592409424483776,0.007336375303566456,-0.012951870448887348,0.1135269170626998,0.03306794632226229,-0.013168351724743843,-0.008212689310312271,0.007183772278949618,0.11718112323433161,0.014655938372015953,-0.018929949030280113,-0.0010459944605827332,-0.15828707814216614,-0.07686824351549149,0.01592409424483776,0.007336375303566456,-0.012951870448887348,0.1135269170626998,0.03306794632226229,-0.013168351724743843,-0.008212689310312271,0.0063404539232607,0.11254782952254994,0.011443905739170479,-0.006135923151542766,0.021475731030399015,-0.1932815792735907,-0.08897088569736722,0.02841614188403252,0.023737841365601045,0.0003749730814833138,0.11117747335203901,0.05539375067364806,-0.024168719524687306,0.018203238682909476
20.368142368000008,0.0,0.0,-0.11562806294462433,-0.026179938779914945,0.04254240051736178,-0.06629430246167727,0.02549780863910664,-0.9974742739618517,1.0,1.0,0.0,-0.0,-0.0,-0.0,0.07671776931843206,0.30687107727372825,0.07671776931843206,0.0,0.0,-0.0,0.0,-0.07671776931843206,0.07671776931843206,0.0,0.013204382732510567,-0.02566225454211235,0.02976711094379425,0.08434613049030304,0.2331846058368683,0.2088487148284912,0.26413074135780334,0.08050773292779922,0.025850757956504822,-0.06869257986545563,-0.03446019068360329,0.08057339489459991,0.10965685546398163,0.20714940130710602,0.005744556663557887,0.1157574849203229,0.015819357708096504,-0.018183376640081406,0.002445615828037262,-0.15565653145313263,-0.0758625790476799,0.020126933231949806,0.0064626894891262054,-0.012984354980289936,0.11355800088495016,0.031837054528295994,-0.011855695396661758,-0.004063185304403305,0.005744556663557887,0.1157574849203229,0.015819357708096504,-0.018183376640081406,0.002445615828037262,-0.15565653145313263,-0.0758625790476799,0.020126933231949806,0.0064626894891262054,-0.012984354980289936,0.11355800088495016,0.031837054528295994,-0.011855695396661758,-0.004063185304403305,0.0063404539232607,0.11254782952254994,0.011443905739170479,-0.006135923151542766,0.021475731030399015,-0.18714565612204836,-0.08743690490948142,0.02841614188403252,0.023737841365601045,0.0003749730814833138,0.11117747335203901,0.05539375067364806,-0.022634738736801503,0.016669257895024117
20.387627285999997,0.0,0.0,-0.11344640137963143,-0.06217735460229799,0.0272707695624114,-0.06737258368058495,0.028582308228126952,-0.9973183978171438,1.0,1.0,0.0,-0.0,-0.0,-0.0,-0.0,0.2301533079552962,0.07671776931843206,0.0,-0.07671776931843206,-0.0,0.0,-0.07671776931843206,0.0,-0.15343553863686413,0.014818960800766945,-0.02345084771513939,0.03090788424015045,0.08504429459571838,0.22688394784927368,0.21597903966903687,0.2631559371948242,0.069627545773983,0.02571282908320427,-0.06970742344856262,-0.035020601004362106,0.07662586122751236,0.11393158882856369,0.20357930660247803,0.006148201180621982,0.11631033662706614,0.016104551032185555,-0.01800883561372757,0.0008704513311386108,-0.15387395024299622,-0.07610628008842468,0.01740688644349575,0.006428207270801067,-0.013238065876066685,0.11341789830476046,0.030850171111524105,-0.010787012055516243,-0.004955708980560303,0.006148201180621982,0.11631033662706614,0.016104551032185555,-0.01800883561372757,0.0008704513311386108,-0.15387395024299622,-0.07610628008842468,0.01740688644349575,0.006428207270801067,-0.013238065876066685,0.11341789830476046,0.030850171111524105,-0.010787012055516243,-0.004955708980560303,0.0063404539232607,0.11254782952254994,0.011443905739170479,-0.006135923151542766,0.021475731030399015,-0.1825437137583914,-0.08590292412159606,0.02841614188403252,0.022203860577715243,0.0003749730814833138,0.11117747335203901,0.0523257890978769,-0.022634738736801503,0.013601296319252512
20.407618850999995,0.0,0.0,-0.12871803233458182,-0.055632369907319255,-0.003272492347489368,-0.06838661097886115,0.029600174901298102,-0.9972196854678705,1.0,1.0,0.0,-0.0,-0.0,-0.0,-0.0,0.2301533079552962,0.07671776931843206,0.0,0.0,-0.0,0.0,-0.15343553863686413,0.07671776931843206,-0.07671776931843206,0.01529555581510067,-0.026250232011079788,0.028926003724336624,0.08758267015218735,0.2328559011220932,0.23107752203941345,0.26558175683021545,0.07286002486944199,0.028508823364973068,-0.06838802993297577,-0.03393612429499626,0.06933090835809708,0.11562100797891617,0.21557584404945374,0.006267349934205413,0.11561049055308104,0.015609080903232098,-0.01737424172461033,0.0023634396493434906,-0.15009932965040207,-0.07549982517957687,0.018215006217360497,0.007127205841243267,-0.012908217497169971,0.11368901748210192,0.029026432894170284,-0.010364657267928123,-0.0019565746188163757,0.006267349934205413,0.11561049055308104,0.015609080903232098,-0.01737424172461033,0.0023634396493434906,-0.15009932965040207,-0.07549982517957687,0.018215006217360497,0.007127205841243267,-0.012908217497169971,0.11368901748210192,0.029026432894170284,-0.010364657267928123,-0.0019565746188163757,0.0063404539232607,0.11254782952254994,0.011443905739170479,-0.006135923151542766,0.021475731030399015,-0.17640779060684864,-0.08436894333371026,0.02841614188403252,0.022203860577715243,0.0003749730814833138,0.11117747335203901,0.04925782752210574,-0.0211007579489157,0.012067315531367154
20.427794231000007,0.0,0.0,0.05999569303730508,0.020725784867432664,0.013089969389957472,-0.06737258368058495,0.028582308228126952,-0.9973183978171438,1.0,1.0,0.0,-0.0,-0.0,-0.0,-0.0,0.30687107727372825,0.07671776931843206,0.0,-0.07671776931843206,-0.0,0.0,-0.07671776931843206,0.0,-0.07671776931843206,0.007444238290190697,-0.021729309111833572,0.03463367000222206,0.06435331702232361,0.23548422753810883,0.24829328060150146,0.2715701460838318,0.07960903644561768,0.02146153524518013,-0.04764019325375557,-0.030055362731218338,0.05566830188035965,0.10379954427480698,0.195155069231987,0.00430452055297792,0.11674072127789259,0.017035997472703457,-0.023181580007076263,0.003020521253347397,-0.14579539000988007,-0.07400272786617279,0.01990225911140442,0.0053653838112950325,-0.007721258327364922,0.1146592078730464,0.025610781274735928,-0.013320023193955421,-0.00706176832318306,0.00430452055297792,0.11674072127789259,0.017035997472703457,-0.023181580007076263,0.003020521253347397,-0.14579539000988007,-0.07400272786617279,0.01990225911140442,0.0053653838112950325,-0.007721258327364922,0.1146592078730464,0.025610781274735928,-0.013320023193955421,-0.00706176832318306,0.0063404539232607,0.11254782952254994,0.011443905739170479,-0.006135923151542766,0.021475731030399015,-0.1702718674553063,-0.08283496254582445,0.02841614188403252,0.020669879789829884,0.0003749730814833138,0.11117747335203901,0.047723846734219935,-0.0211007579489157,0.010533334743481351
20.447803241000003,0.0,0.0,0.04254240051736178,0.020725784867432664,-0.025089107997418487,-0.0673059887688094,0.027534268132694755,-0.997352379028721,1.0,1.0,0.0,-0.0,-0.0,-0.0,-0.0,0.30687107727372825,0.07671776931843206,0.0,-0.07671776931843206,-0.0,-0.07671776931843206,-0.15343553863686413,0.0,-0.07671776931843206,0.005603289231657982,-0.01940549910068512,0.036841463297605515,0.05518137663602829,0.2319893091917038,0.26154884696006775,0.2724732458591461,0.07656323909759521,0.020695026963949203,-0.040253669023513794,-0.030121412128210068,0.045913830399513245,0.10327611863613129,0.19284944236278534,0.003844283288344741,0.1173216737806797,0.01758794579654932,-0.025474565103650093,0.0021467916667461395,-0.1424814984202385,-0.07377695292234421,0.019140809774398804,0.005173756740987301,-0.005874627269804478,0.11464269552379847,0.023172163404524326,-0.013450879603624344,-0.007638175040483475,0.003844283288344741,0.1173216737806797,0.01758794579654932,-0.025474565103650093,0.0021467916667461395,-0.1424814984202385,-0.07377695292234421,0.019140809774398804,0.005173756740987301,-0.005874627269804478,0.11464269552379847,0.023172163404524326,-0.013450879603624344,-0.007638175040483475,0.0063404539232607,0.11254782952254994,0.011443905739170479,-0.006135923151542766,0.021475731030399015,-0.16566992509164935,-0.0813009817579391,0.02841614188403252,0.01913589900194408,0.0003749730814833138,0.1096434925641532,0.044655885158448774,-0.0211007579489157,0.010533334743481351
20.46793684299999,0.0,0.0,0.09599310885968812,0.0,-0.022907446432425576,-0.06730784373963085,0.026515211170157607,-0.9973798663236207,1.0,1.0,0.0,-0.0,-0.0,-0.0,-0.0,0.2301533079552962,-0.0,0.0,0.0,-0.0,0.0,-0.07671776931843206,0.07671776931843206,0.0,0.0011293943971395493,-0.02166787162423134,0.041183728724718094,0.04767231643199921,0.23858962953090668,0.27489233016967773,0.27645787596702576,0.0858665481209755,0.020888399332761765,-0.03390004485845566,-0.025652244687080383,0.04194321483373642,0.10371037572622299,0.18964983522891998,0.0027258095797151327,0.11675608064979315,0.018673512153327465,-0.027351830154657364,0.0037968717515468597,-0.139145627617836,-0.0727807953953743,0.021466637030243874,0.005222099833190441,-0.004286221228539944,0.11575998738408089,0.02217950951308012,-0.013342315331101418,-0.008438076823949814,0.0027258095797151327,0.11675608064979315,0.018673512153327465,-0.027351830154657364,0.0037968717515468597,-0.139145627617836,-0.0727807953953743,0.021466637030243874,0.005222099833190441,-0.004286221228539944,0.11575998738408089,0.02217950951308012,-0.013342315331101418,-0.008438076823949814,0.0063404539232607,0.11254782952254994,0.011443905739170479,-0.006135923151542766,0.021475731030399015,-0.15953400194010658,-0.0813009817579391,0.02841614188403252,0.01913589900194408,0.0003749730814833138,0.1096434925641532,0.04312190437056297,-0.019566777161030342,0.010533334743481351
20.487982445,0.0,0.0,0.15489797111449674,0.001090830782496456,-0.00545415391248228,-0.06731456491833702,0.022438188306112338,-0.9974794619717212,1.0,1.0,0.0,-0.0,-0.0,-0.07671776931843206,-0.07671776931843206,0.2301533079552962,0.15343553863686413,0.0,-0.07671776931843206,-0.0,0.0,-0.15343553863686413,0.0,0.0,-0.00299702025949955,-0.021918248385190964,0.04641531780362129,0.04389515519142151,0.24847844243049622,0.27992263436317444,0.27616292238235474,0.08638309687376022,0.019958477467298508,-0.030874814838171005,-0.017542382702231407,0.04242442548274994,0.10254064947366714,0.18630719184875488,0.001694205915555358,0.11669348645955324,0.019981409423053265,-0.02829612046480179,0.006269074976444244,-0.13788805156946182,-0.07285453379154205,0.021595774218440056,0.004989619366824627,-0.0035299137234687805,0.11778745288029313,0.0222998121753335,-0.01363474689424038,-0.009273737668991089,0.001694205915555358,0.11669348645955324,0.019981409423053265,-0.02829612046480179,0.006269074976444244,-0.13788805156946182,-0.07285453379154205,0.021595774218440056,0.004989619366824627,-0.0035299137234687805,0.11778745288029313,0.0222998121753335,-0.01363474689424038,-0.009273737668991089,0.0063404539232607,0.11254782952254994,0.011443905739170479,-0.007669903939428124,0.019941750242513212,-0.15493205957644962,-0.07823302018216749,0.02841614188403252,0.01760191821405828,0.0003749730814833138,0.1096434925641532,0.04005394279479181,-0.019566777161030342,0.010533334743481351
20.507993417999984,0.0,0.0,0.08726646259971647,0.008726646259971648,0.007635815477475192,-0.06731607045830022,0.021418749691277345,-0.9975017713366305,1.0,1.0,0.0,-0.0,-0.0,-0.0,-0.0,0.2301533079552962,0.07671776931843206,0.0,0.0,-0.0,0.0,-0.07671776931843206,0.0,0.0,-0.0014499481767416,-0.018418453633785248,0.03839976713061333,0.04312475025653839,0.24074044823646545,0.2920275330543518,0.2813003361225128,0.07792069762945175,0.020483877509832382,-0.030560242012143135,-0.021065739914774895,0.03610852360725403,0.09736104309558868,0.1846562922000885,0.0020809739362448454,0.11756843514740467,0.017977521754801273,-0.028488721698522568,0.004334576427936554,-0.13486182689666748,-0.07157018035650253,0.019480174407362938,0.0051209693774580956,-0.003451270516961813,0.11690661357715726,0.020720836706459522,-0.014929648488759995,-0.009686462581157684,0.0020809739362448454,0.11756843514740467,0.017977521754801273,-0.028488721698522568,0.004334576427936554,-0.13486182689666748,-0.07157018035650253,0.019480174407362938,0.0051209693774580956,-0.003451270516961813,0.11690661357715726,0.020720836706459522,-0.014929648488759995,-0.009686462581157684,0.0063404539232607,0.11254782952254994,0.011443905739170479,-0.007669903939428124,0.019941750242513212,-0.15186409800067846,-0.07669903939428213,0.02841614188403252,0.01760191821405828,0.0003749730814833138,0.1096434925641532,0.03851996200690601,-0.019566777161030342,0.008999353955595549
20.527992667999996,0.0,0.0,0.030543261909900768,0.003272492347489368,-0.050178215994836975,-0.067317506067232,0.020399244262797572,-0.9975230444508012,1.0,1.0,0.0,-0.0,-0.0,-0.0,-0.0,0.15343553863686413,0.07671776931843206,0.0,0.0,-0.0,0.0,-0.07671776931843206,0.0,-0.07671776931843206,0.0033344458788633347,-0.018758397549390793,0.03479563817381859,0.055494509637355804,0.2311002016067505,0.2963259816169739,0.28320229053497314,0.07307138293981552,0.027941200882196426,-0.03448044881224632,-0.020460577681660652,0.03541875630617142,0.10204311460256577,0.19033560156822205,0.003277072450146079,0.11748344916850328,0.01707648951560259,-0.025396281853318214,0.0019245147705078125,-0.13378721475601196,-0.07109469175338745,0.01826784573495388,0.006985300220549107,-0.00443132221698761,0.11705790413543582,0.02054839488118887,-0.013759130612015724,-0.008266635239124298,0.003277072450146079,0.11748344916850328,0.01707648951560259,-0.025396281853318214,0.0019245147705078125,-0.13378721475601196,-0.07109469175338745,0.01826784573495388,0.006985300220549107,-0.00443132221698761,0.11705790413543582,0.02054839488118887,-0.013759130612015724,-0.008266635239124298,0.0063404539232607,0.11254782952254994,0.011443905739170479,-0.007669903939428124,0.019941750242513212,-0.1487961364249073,-0.07516505860639633,0.02841614188403252,0.01760191821405828,0.0003749730814833138,0.1096434925641532,0.03698598121902065,-0.019566777161030342,0.00746537316771019
20.548347584999988,0.0,0.0,0.018544123302439753,-0.006544984694978736,-0.04363323129985824,-0.067317506067232,0.020399244262797572,-0.9975230444508012,1.0,1.0,0.0,-0.0,-0.0,-0.0,-0.0,0.15343553863686413,-0.0,0.0,0.0,-0.0,0.0,0.0,0.0,-0.07671776931843206,0.00557161308825016,-0.018873050808906555,0.03134462609887123,0.06416238099336624,0.23337934911251068,0.3027835786342621,0.2847500741481781,0.07634802907705307,0.032000500708818436,-0.036824870854616165,-0.019936390221118927,0.038567639887332916,0.10510861873626709,0.1960318386554718,0.0038363642524927855,0.11745478585362434,0.01621373649686575,-0.023229314014315605,0.0024943016469478607,-0.1321728155016899,-0.07070774585008621,0.019087007269263268,0.008000125177204609,-0.0050174277275800705,0.11718895100057125,0.021335615776479244,-0.012992754578590393,-0.006842575967311859,0.0038363642524927855,0.11745478585362434,0.01621373649686575,-0.023229314014315605,0.0024943016469478607,-0.1321728155016899,-0.07070774585008621,0.019087007269263268,0.008000125177204609,-0.0050174277275800705,0.11718895100057125,0.021335615776479244,-0.012992754578590393,-0.006842575967311859,0.0063404539232607,0.11254782952254994,0.011443905739170479,-0.007669903939428124,0.019941750242513212,-0.14419419406125034,-0.07516505860639633,0.02841614188403252,0.01760191821405828,0.0003749730814833138,0.1096434925641532,0.03698598121902065,-0.019566777161030342,0.005931392379824388
20.568184465,0.0,0.0,0.017453292519943295,-0.003272492347489368,0.01090830782496456,-0.067317506067232,0.020399244262797572,-0.9975230444508012,1.0,1.0,0.0,-0.0,-0.0,-0.0,-0.0,0.15343553863686413,-0.0,0.0,0.0,-0.0,0.0,0.0,0.0,-0.07671776931843206,0.007677903398871422,-0.02087457850575447,0.028298545628786087,0.06901595741510391,0.23460355401039124,0.3045843541622162,0.283665269613266,0.07812579721212387,0.03330187872052193,-0.03928186371922493,-0.018207259476184845,0.04202667623758316,0.10566854476928711,0.19887666404247284,0.004362936830148101,0.11695440392941236,0.015452216379344463,-0.022015919908881187,0.0028003528714179993,-0.13172262161970139,-0.07097894698381424,0.019531449303030968,0.008325469680130482,-0.005631675943732262,0.11762123368680477,0.022200374864041805,-0.012852773070335388,-0.0061313696205616,0.004362936830148101,0.11695440392941236,0.015452216379344463,-0.022015919908881187,0.0028003528714179993,-0.13172262161970139,-0.07097894698381424,0.019531449303030968,0.008325469680130482,-0.005631675943732262,0.11762123368680477,0.022200374864041805,-0.012852773070335388,-0.0061313696205616,0.0063404539232607,0.11101384873466413,0.011443905739170479,-0.007669903939428124,0.019941750242513212,-0.14266021327336453,-0.07516505860639633,0.02841614188403252,0.01760191821405828,0.0003749730814833138,0.1096434925641532,0.03698598121902065,-0.019566777161030342,0.005931392379824388
20.588191179000006,0.0,0.0,-0.026179938779914945,0.0,-0.018544123302439753,-0.067317506067232,0.020399244262797572,-0.9975230444508012,1.0,1.0,0.0,-0.07671776931843206,-0.0,-0.0,-0.0,0.15343553863686413,-0.0,0.0,0.0,-0.0,0.0,0.0,0.0,0.0,0.01011563278734684,-0.018819659948349,0.02368568256497383,0.07277080416679382,0.227601557970047,0.312187135219574,0.28512853384017944,0.07400278002023697,0.036353982985019684,-0.041820723563432693,-0.01924549788236618,0.04189828038215637,0.1053130030632019,0.20021399855613708,0.004972369177266955,0.11746813356876373,0.0142990006133914,-0.02107720822095871,0.0010498538613319397,-0.12982192635536194,-0.07061313092708588,0.018500695005059242,0.009088495746254921,-0.006266390904784203,0.11736167408525944,0.022168275900185108,-0.01294165849685669,-0.005797035992145538,0.004972369177266955,0.11746813356876373,0.0142990006133914,-0.02107720822095871,0.0010498538613319397,-0.12982192635536194,-0.07061313092708588,0.018500695005059242,0.009088495746254921,-0.006266390904784203,0.11736167408525944,0.022168275900185108,-0.01294165849685669,-0.005797035992145538,0.0063404539232607,0.11101384873466413,0.011443905739170479,-0.007669903939428124,0.019941750242513212,-0.13959225169759337,-0.07516505860639633,0.02841614188403252,0.01760191821405828,0.0003749730814833138,0.1096434925641532,0.03698598121902065,-0.019566777161030342,0.005931392379824388
20.60856459499999,0.0,0.0,-0.014180800172453928,0.0,0.017453292519943295,-0.06731607045830022,0.021418749691277345,-0.9975017713366305,1.0,1.0,0.0,-0.07671776931843206,-0.0,-0.0,-0.0,0.07671776931843206,-0.0,0.0,0.0,-0.0,0.0,0.0,0.07671776931843206,0.0,0.010340603068470955,-0.020410854369401932,0.020795661956071854,0.07582426071166992,0.22385838627815247,0.31544506549835205,0.2868296802043915,0.07118096947669983,0.03622448071837425,-0.04603975638747215,-0.018832353875041008,0.04443296045064926,0.10450805723667145,0.19966691732406616,0.005028611747547984,0.1170703349635005,0.013576495461165905,-0.020313844084739685,0.00011406093835830688,-0.12900744378566742,-0.07018784433603287,0.017795242369174957,0.009056120179593563,-0.007321149110794067,0.11746496008709073,0.02280194591730833,-0.013142894953489304,-0.005933806300163269,0.005028611747547984,0.1170703349635005,0.013576495461165905,-0.020313844084739685,0.00011406093835830688,-0.12900744378566742,-0.07018784433603287,0.017795242369174957,0.009056120179593563,-0.007321149110794067,0.11746496008709073,0.02280194591730833,-0.013142894953489304,-0.005933806300163269,0.0063404539232607,0.10947986794677877,0.011443905739170479,-0.007669903939428124,0.019941750242513212,-0.13805827090970757,-0.07516505860639633,0.02841614188403252,0.01760191821405828,0.0003749730814833138,0.1096434925641532,0.03698598121902065,-0.01803279637314454,0.005931392379824388
20.628390217000003,0.0,0.0,-0.032724923474893676,0.0,0.026179938779914945,-0.06731607045830022,0.021418749691277345,-0.9975017713366305,1.0,1.0,0.0,-0.0,-0.0,-0.0,-0.0,0.07671776931843206,-0.0,0.0,0.0,-0.0,0.0,0.0,0.0,0.0,0.011507662013173103,-0.0201968252658844,0.01833469793200493,0.0809687077999115,0.22378528118133545,0.3192245066165924,0.2876330316066742,0.06896565109491348,0.03725489601492882,-0.049929484724998474,-0.018610656261444092,0.04893802851438522,0.10505257546901703,0.20125769078731537,0.005320376483723521,0.11712384223937988,0.012961254455149174,-0.01902773231267929,9.578466415405273e-05,-0.12806258350610733,-0.06998700648546219,0.01724141277372837,0.009313724003732204,-0.008293581195175648,0.11752038449048996,0.02392821293324232,-0.013006765395402908,-0.005536112934350967,0.005320376483723521,0.11712384223937988,0.012961254455149174,-0.01902773231267929,9.578466415405273e-05,-0.12806258350610733,-0.06998700648546219,0.01724141277372837,0.009313724003732204,-0.008293581195175648,0.11752038449048996,0.02392821293324232,-0.013006765395402908,-0.005536112934350967,0.0063404539232607,0.10947986794677877,0.011443905739170479,-0.007669903939428124,0.019941750242513212,-0.1349903093339364,-0.07516505860639633,0.02841614188403252,0.01760191821405828,0.0003749730814833138,0.1096434925641532,0.03698598121902065,-0.01803279637314454,0.005931392379824388
20.648399708,0.0,0.0,-0.04036073895236887,0.002181661564992912,0.016362461737446838,-0.06731456491833702,0.022438188306112338,-0.9974794619717212,1.0,1.0,0.0,-0.0,-0.0,-0.0,-0.0,0.15343553863686413,-0.0,0.0,0.0,-0.0,0.0,0.0,0.0,0.0,0.01272808201611042,-0.023847024887800217,0.016670234501361847,0.08096818625926971,0.22393880784511566,0.3233570158481598,0.28910818696022034,0.07166033238172531,0.03924596682190895,-0.04961365461349487,-0.01735701598227024,0.046249426901340485,0.1057242602109909,0.20102384686470032,0.0056254814844578505,0.11621129233390093,0.012545138597488403,-0.019027862697839737,0.00013416633009910583,-0.12702945619821548,-0.06961821764707565,0.017915083095431328,0.009811491705477238,-0.008214623667299747,0.11783379456028342,0.023256062529981136,-0.012838844209909439,-0.00559457391500473,0.0056254814844578505,0.11621129233390093,0.012545138597488403,-0.019027862697839737,0.00013416633009910583,-0.12702945619821548,-0.06961821764707565,0.017915083095431328,0.009811491705477238,-0.008214623667299747,0.11783379456028342,0.023256062529981136,-0.012838844209909439,-0.00559457391500473,0.0063404539232607,0.10794588715889297,0.011443905739170479,-0.007669903939428124,0.019941750242513212,-0.1334563285460506,-0.07516505860639633,0.02841614188403252,0.01760191821405828,0.0003749730814833138,0.1096434925641532,0.03698598121902065,-0.01803279637314454,0.005931392379824388
20.668627179999987,0.0,0.0,-0.055632369907319255,0.0,0.020725784867432664,-0.06731298946142635,0.023457556933527364,-0.9974561165647722,1.0,1.0,0.0,-0.07671776931843206,-0.0,-0.0,-0.0,0.07671776931843206,-0.0,0.0,0.0,-0.0,0.0,0.0,0.0,0.0,0.01327095739543438,-0.021448645740747452,0.01450825110077858,0.07843954861164093,0.21665991842746735,0.32987672090530396,0.2897685766220093,0.06985081732273102,0.04040589556097984,-0.04889377951622009,-0.018286876380443573,0.04392281174659729,0.1063835471868515,0.197171151638031,0.00576120032928884,0.11681088712066412,0.012004642747342587,-0.019660022109746933,-0.001685556024312973,-0.12539952993392944,-0.06945312023162842,0.017462704330682755,0.01010147389024496,-0.008034654892981052,0.11760132946074009,0.022674408741295338,-0.01267402246594429,-0.006557747721672058,0.00576120032928884,0.11681088712066412,0.012004642747342587,-0.019660022109746933,-0.001685556024312973,-0.12539952993392944,-0.06945312023162842,0.017462704330682755,0.01010147389024496,-0.008034654892981052,0.11760132946074009,0.022674408741295338,-0.01267402246594429,-0.006557747721672058,0.0063404539232607,0.10794588715889297,0.011443905739170479,-0.007669903939428124,0.019941750242513212,-0.13192234775816525,-0.07516505860639633,0.02841614188403252,0.01760191821405828,0.0003749730814833138,0.1096434925641532,0.03698598121902065,-0.01803279637314454,0.005931392379824388
20.688582096999994,0.0,0.0,-0.04690572364734761,-0.001090830782496456,0.003272492347489368,-0.06731134410230444,0.024476852400837974,-0.9974317353341474,1.0,1.0,0.0,-0.0,-0.0,-0.0,-0.0,0.07671776931843206,-0.0,0.0,0.0,-0.0,0.0,0.0,0.0,0.0,0.013412510976195335,-0.02248789742588997,0.015575956553220749,0.08270032703876495,0.21916773915290833,0.33123859763145447,0.2894458472728729,0.06876880675554276,0.04067569598555565,-0.05202929675579071,-0.01805664785206318,0.04594297707080841,0.10831114649772644,0.20301103591918945,0.005796588724479079,0.11655107419937849,0.012271569110453129,-0.018594827502965927,-0.0010586008429527283,-0.12505906075239182,-0.0695338025689125,0.01719220168888569,0.010168923996388912,-0.008818534202873707,0.11765888659283519,0.023179450072348118,-0.012192122638225555,-0.005097776651382446,0.005796588724479079,0.11655107419937849,0.012271569110453129,-0.018594827502965927,-0.0010586008429527283,-0.12505906075239182,-0.0695338025689125,0.01719220168888569,0.010168923996388912,-0.008818534202873707,0.11765888659283519,0.023179450072348118,-0.012192122638225555,-0.005097776651382446,0.0063404539232607,0.10794588715889297,0.011443905739170479,-0.007669903939428124,0.019941750242513212,-0.13038836697027945,-0.07516505860639633,0.02841614188403252,0.01760191821405828,0.0003749730814833138,0.1096434925641532,0.03698598121902065,-0.01803279637314454,0.005931392379824388
20.708623181000007,0.0,0.0,-0.04036073895236887,0.0,-0.003272492347489368,-0.06730962885635941,0.025496071536499774,-0.9974063185078711,1.0,1.0,0.0,-0.0,-0.0,-0.0,-0.0,-0.0,-0.0,0.0,0.0,-0.0,0.0,0.0,0.0,0.0,0.013338657096028328,-0.023246940225362778,0.015580680221319199,0.0799526572227478,0.22059983015060425,0.3345743715763092,0.28989657759666443,0.07084710150957108,0.040868524461984634,-0.05033563822507858,-0.0175857562571764,0.044356852769851685,0.10807662457227707,0.19849644601345062,0.005778125254437327,0.11636131349951029,0.012272750027477741,-0.019281744956970215,-0.0007005780935287476,-0.12422511726617813,-0.06942111998796463,0.01771177537739277,0.010217131115496159,-0.008395119570195675,0.11777660949155688,0.022782918997108936,-0.012250753119587898,-0.006226424127817154,0.005778125254437327,0.11636131349951029,0.012272750027477741,-0.019281744956970215,-0.0007005780935287476,-0.12422511726617813,-0.06942111998796463,0.01771177537739277,0.010217131115496159,-0.008395119570195675,0.11777660949155688,0.022782918997108936,-0.012250753119587898,-0.006226424127817154,0.0063404539232607,0.10794588715889297,0.011443905739170479,-0.007669903939428124,0.019941750242513212,-0.12885438618239364,-0.07516505860639633,0.02841614188403252,0.01760191821405828,0.0003749730814833138,0.1096434925641532,0.03698598121902065,-0.01803279637314454,0.005931392379824388
20.728959134999997,0.0,0.0,-0.028361600344907856,0.0,-0.014180800172453928,-0.06730784373963085,0.026515211170157607,-0.9973798663236207,1.0,1.0,0.0,-0.0,-0.0,-0.0,-0.0,0.15343553863686413,-0.0,0.0,0.0,-0.0,0.0,0.0,0.0,0.0,0.012709936127066612,-0.02498486265540123,0.017876937985420227,0.08062160015106201,0.2265615016222,0.3353205919265747,0.2892003655433655,0.07300596684217453,0.040628183633089066,-0.05064147710800171,-0.016725627705454826,0.04474619776010513,0.11026754975318909,0.2005724012851715,0.0056209450121968985,0.11592683289200068,0.012846814468502998,-0.019114509224891663,0.0007898397743701935,-0.12403856217861176,-0.06959517300128937,0.018251491710543633,0.010157045908272266,-0.008471579290926456,0.11799164162948728,0.0228802552446723,-0.011703021824359894,-0.005707435309886932,0.0056209450121968985,0.11592683289200068,0.012846814468502998,-0.019114509224891663,0.0007898397743701935,-0.12403856217861176,-0.06959517300128937,0.018251491710543633,0.010157045908272266,-0.008471579290926456,0.11799164162948728,0.0228802552446723,-0.011703021824359894,-0.005707435309886932,0.0063404539232607,0.10794588715889297,0.011443905739170479,-0.007669903939428124,0.019941750242513212,-0.12732040539450828,-0.07516505860639633,0.02841614188403252,0.01760191821405828,0.0003749730814833138,0.1096434925641532,0.03698598121902065,-0.01803279637314454,0.005931392379824388
20.748784162999982,0.0,0.0,-0.008726646259971648,0.0,-0.014180800172453928,-0.06730784373963085,0.026515211170157607,-0.9973798663236207,1.0,1.0,0.0,-0.0,-0.0,-0.0,-0.0,-0.0,-0.0,0.0,0.0,-0.0,0.0,0.0,0.0,0.0,0.011985765770077705,-0.021628301590681076,0.018213246017694473,0.0710669755935669,0.21867071092128754,0.34132781624794006,0.2900855243206024,0.07115203887224197,0.03954913094639778,-0.0453869104385376,-0.01731070503592491,0.03940882533788681,0.10780275613069534,0.19106481969356537,0.005439902422949672,0.11676597315818071,0.01293089147657156,-0.021503165364265442,-0.0011828579008579254,-0.12253675609827042,-0.06937388330698013,0.017788009718060493,0.009887282736599445,-0.007157937623560429,0.11784537229686975,0.021545912139117718,-0.01231922022998333,-0.008084330707788467,0.005439902422949672,0.11676597315818071,0.01293089147657156,-0.021503165364265442,-0.0011828579008579254,-0.12253675609827042,-0.06937388330698013,0.017788009718060493,0.009887282736599445,-0.007157937623560429,0.11784537229686975,0.021545912139117718,-0.01231922022998333,-0.008084330707788467,0.0063404539232607,0.10794588715889297,0.011443905739170479,-0.007669903939428124,0.019941750242513212,-0.12732040539450828,-0.07516505860639633,0.02841614188403252,0.01760191821405828,0.0003749730814833138,0.1096434925641532,0.03698598121902065,-0.01803279637314454,0.005931392379824388
20.768828839999998,0.0,0.0,-0.008726646259971648,0.002181661564992912,-0.004363323129985824,-0.06730784373963085,0.026515211170157607,-0.9973798663236207,1.0,1.0,0.0,-0.0,-0.0,-0.0,-0.0,-0.0,-0.0,0.0,0.0,-0.0,0.0,0.0,0.0,0.0,0.010947076603770256,-0.025690879672765732,0.02045111358165741,0.07651791721582413,0.22941741347312927,0.336292564868927,0.28773069381713867,0.07500812411308289,0.03947291150689125,-0.04800521954894066,-0.015699293464422226,0.0434466227889061,0.11168999969959259,0.19833572208881378,0.005180230131372809,0.11575032863765955,0.013490358367562294,-0.020140429958701134,0.0015038177371025085,-0.12379556894302368,-0.06996259093284607,0.01875203102827072,0.009868227876722813,-0.007812514901161194,0.11824822518974543,0.02255536150187254,-0.011347409337759018,-0.006266605108976364,0.005180230131372809,0.11575032863765955,0.013490358367562294,-0.020140429958701134,0.0015038177371025085,-0.12379556894302368,-0.06996259093284607,0.01875203102827072,0.009868227876722813,-0.007812514901161194,0.11824822518974543,0.02255536150187254,-0.011347409337759018,-0.006266605108976364,0.0063404539232607,0.10794588715889297,0.011443905739170479,-0.007669903939428124,0.019941750242513212,-0.12732040539450828,-0.07516505860639633,0.02841614188403252,0.01760191821405828,0.0003749730814833138,0.1096434925641532,0.03698598121902065,-0.01803279637314454,0.005931392379824388
20.78895875699999,0.0,0.0,0.00545415391248228,0.001090830782496456,-0.002181661564992912,-0.0673059887688094,0.027534268132694755,-0.997352379028721,1.0,1.0,0.0,-0.0,-0.0,-0.0,-0.0,-0.0,-0.0,0.0,0.0,-0.0,0.0,0.0,0.0,0.0,0.011095905676484108,-0.025123197585344315,0.021535664796829224,0.07466498762369156,0.23065759241580963,0.3363009989261627,0.2875696122646332,0.07574138790369034,0.03834130987524986,-0.047434404492378235,-0.016178082674741745,0.04254114627838135,0.1109614223241806,0.1978113055229187,0.005217437399551272,0.1158922491595149,0.013761496171355247,-0.020603662356734276,0.0018138624727725983,-0.12379346042871475,-0.07000286132097244,0.018935346975922585,0.009585327468812466,-0.007669811137020588,0.11812852788716555,0.022328992374241352,-0.011529553681612015,-0.006397709250450134,0.005217437399551272,0.1158922491595149,0.013761496171355247,-0.020603662356734276,0.0018138624727725983,-0.12379346042871475,-0.07000286132097244,0.018935346975922585,0.009585327468812466,-0.007669811137020588,0.11812852788716555,0.022328992374241352,-0.011529553681612015,-0.006397709250450134,0.0063404539232607,0.10794588715889297,0.011443905739170479,-0.007669903939428124,0.019941750242513212,-0.12732040539450828,-0.07516505860639633,0.02841614188403252,0.01760191821405828,0.0003749730814833138,0.1096434925641532,0.03698598121902065,-0.01803279637314454,0.005931392379824388
20.808967007000007,0.0,0.0,-0.00545415391248228,0.0,0.009817477042468103,-0.0673059887688094,0.027534268132694755,-0.997352379028721,1.0,1.0,0.0,-0.0,-0.0,-0.0,-0.0,-0.0,-0.0,0.0,0.0,-0.0,0.0,0.0,0.0,0.0,0.011169804260134697,-0.02537195011973381,0.020794417709112167,0.0752483382821083,0.23031356930732727,0.3363227844238281,0.2873609960079193,0.07563292235136032,0.03838934376835823,-0.0482010655105114,-0.01643403246998787,0.04296049475669861,0.11110927164554596,0.19857147336006165,0.00523591204546392,0.11583006102591753,0.013576184399425983,-0.02045782469213009,0.001727856695652008,-0.1237880140542984,-0.07005501538515091,0.01890823058784008,0.009597335942089558,-0.007861476391553879,0.11806454043835402,0.022433829493820667,-0.011492591351270676,-0.006207667291164398,0.00523591204546392,0.11583006102591753,0.013576184399425983,-0.02045782469213009,0.001727856695652008,-0.1237880140542984,-0.07005501538515091,0.01890823058784008,0.009597335942089558,-0.007861476391553879,0.11806454043835402,0.022433829493820667,-0.011492591351270676,-0.006207667291164398,0.0063404539232607,0.10794588715889297,0.011443905739170479,-0.007669903939428124,0.019941750242513212,-0.12732040539450828,-0.07516505860639633,0.02841614188403252,0.01760191821405828,0.0003749730814833138,0.1096434925641532,0.03698598121902065,-0.01803279637314454,0.005931392379824388
20.829024739999994,0.0,0.0,-0.011999138607461015,0.002181661564992912,0.006544984694978736,-0.0673059887688094,0.027534268132694755,-0.997352379028721,1.0,1.0,0.0,-0.0,-0.0,-0.0,-0.0,-0.0,-0.0,0.0,0.0,-0.0,0.0,0.0,0.0,0.0,0.011565936729311943,-0.025184597820043564,0.020120754837989807,0.07586970925331116,0.22916150093078613,0.3366635739803314,0.28743231296539307,0.07494379580020905,0.03873589262366295,-0.04872765392065048,-0.01670544035732746,0.043069176375865936,0.11097501218318939,0.1988179087638855,0.005334945162758231,0.11587689910084009,0.013407768681645393,-0.020302481949329376,0.0014398396015167236,-0.12370281666517258,-0.07003718614578247,0.01873594895005226,0.009683973155915737,-0.00799312349408865,0.11799668846651912,0.0224609998986125,-0.011526156216859818,-0.006146058440208435,0.005334945162758231,0.11587689910084009,0.013407768681645393,-0.020302481949329376,0.0014398396015167236,-0.12370281666517258,-0.07003718614578247,0.01873594895005226,0.009683973155915737,-0.00799312349408865,0.11799668846651912,0.0224609998986125,-0.011526156216859818,-0.006146058440208435,0.0063404539232607,0.10794588715889297,0.011443905739170479,-0.007669903939428124,0.019941750242513212,-0.12732040539450828,-0.07516505860639633,0.02841614188403252,0.01760191821405828,0.0003749730814833138,0.1096434925641532,0.03698598121902065,-0.01803279637314454,0.005931392379824388
20.849282638999995,0.0,0.0,-0.011999138607461015,-0.002181661564992912,0.006544984694978736,-0.0673059887688094,0.027534268132694755,-0.997352379028721,1.0,1.0,0.0,-0.0,-0.0,-0.0,-0.0,-0.0,-0.0,0.0,0.0,-0.0,0.0,0.0,0.0,0.0,0.011727215722203255,-0.025353264063596725,0.020200081169605255,0.0767180547118187,0.22951461374759674,0.3362121880054474,0.287299245595932,0.07503924518823624,0.03884400054812431,-0.04908289387822151,-0.016601020470261574,0.04341635853052139,0.111307792365551,0.19926923513412476,0.005375264910981059,0.1158347325399518,0.013427600264549255,-0.020090395584702492,0.0015281178057193756,-0.12381566315889359,-0.07007045298814774,0.01875981129705906,0.009711000137031078,-0.008081933483481407,0.11802279343828559,0.022547795437276363,-0.011442961171269417,-0.006033226847648621,0.005375264910981059,0.1158347325399518,0.013427600264549255,-0.020090395584702492,0.0015281178057193756,-0.12381566315889359,-0.07007045298814774,0.01875981129705906,0.009711000137031078,-0.008081933483481407,0.11802279343828559,0.022547795437276363,-0.011442961171269417,-0.006033226847648621,0.0063404539232607,0.10794588715889297,0.011443905739170479,-0.007669903939428124,0.019941750242513212,-0.12732040539450828,-0.07516505860639633,0.02841614188403252,0.01760191821405828,0.0003749730814833138,0.1096434925641532,0.03698598121902065,-0.01803279637314454,0.005931392379824388
20.869159593000006,0.0,0.0,-0.013089969389957472,-0.003272492347489368,0.004363323129985824,-0.06737451437303481,0.02756230133442333,-0.9973469779159849,1.0,1.0,0.0,-0.0,-0.0,-0.0,-0.0,-0.0,-0.0,0.0,0.0,-0.0,0.0,0.0,0.0,0.0,0.011854244396090508,-0.025346551090478897,0.02015087753534317,0.07704415172338486,0.22947312891483307,0.336038202047348,0.2873232066631317,0.0749264508485794,0.03893357142806053,-0.04932810738682747,-0.016646193340420723,0.043438248336315155,0.11145519465208054,0.1994139552116394,0.005407022079452872,0.11583641078323126,0.013415299355983734,-0.02000887133181095,0.0015177465975284576,-0.12385915964841843,-0.07006446272134781,0.01873161271214485,0.009733392857015133,-0.008143236860632896,0.1180115002207458,0.022553267888724804,-0.011406110599637032,-0.0059970468282699585,0.005407022079452872,0.11583641078323126,0.013415299355983734,-0.02000887133181095,0.0015177465975284576,-0.12385915964841843,-0.07006446272134781,0.01873161271214485,0.009733392857015133,-0.008143236860632896,0.1180115002207458,0.022553267888724804,-0.011406110599637032,-0.0059970468282699585,0.0063404539232607,0.10794588715889297,0.011443905739170479,-0.007669903939428124,0.019941750242513212,-0.12732040539450828,-0.07516505860639633,0.02841614188403252,0.01760191821405828,0.0003749730814833138,0.1096434925641532,0.03698598121902065,-0.01803279637314454,0.005931392379824388
20.889212713999996,0.0,0.0,-0.017453292519943295,-0.003272492347489368,-0.004363323129985824,-0.06737258368058495,0.028582308228126952,-0.9973183978171438,1.0,1.0,0.0,0.07671776931843206,-0.0,-0.0,-0.0,-0.0,-0.0,0.0,0.0,-0.0,0.0,0.0,0.0,0.0,0.011673467233777046,-0.02297980710864067,0.020566079765558243,0.07715341448783875,0.22849443554878235,0.3360144793987274,0.28734952211380005,0.07455508410930634,0.03856584057211876,-0.04899647459387779,-0.01814594306051731,0.043331973254680634,0.11149054765701294,0.19871245324611664,0.005361827788874507,0.11642809677869081,0.013519099913537502,-0.01998155564069748,0.0012730732560157776,-0.12386509031057358,-0.07005788385868073,0.018638771027326584,0.00964146014302969,-0.008060328662395477,0.11763656279072165,0.022526699118316174,-0.01139727234840393,-0.00617242231965065,0.005361827788874507,0.11642809677869081,0.013519099913537502,-0.01998155564069748,0.0012730732560157776,-0.12386509031057358,-0.07005788385868073,0.018638771027326584,0.00964146014302969,-0.008060328662395477,0.11763656279072165,0.022526699118316174,-0.01139727234840393,-0.00617242231965065,0.0063404539232607,0.10947986794677877,0.011443905739170479,-0.007669903939428124,0.019941750242513212,-0.12732040539450828,-0.07516505860639633,0.02841614188403252,0.01760191821405828,0.0003749730814833138,0.1096434925641532,0.03698598121902065,-0.01803279637314454,0.005931392379824388
20.909457927999995,0.0,0.0,-0.013089969389957472,-0.00545415391248228,-0.001090830782496456,-0.06737258368058495,0.028582308228126952,-0.9973183978171438,1.0,1.0,0.0,-0.0,-0.0,-0.0,-0.0,-0.0,-0.0,0.0,0.0,-0.0,0.0,0.0,0.0,0.0,0.010984288528561592,-0.02465207502245903,0.02128874510526657,0.07517918944358826,0.23136064410209656,0.3353027403354645,0.2870888411998749,0.07781720906496048,0.038554806262254715,-0.04683896526694298,-0.01686805859208107,0.04271632432937622,0.11205314099788666,0.19555631279945374,0.005189533112570643,0.11601002980023623,0.013699766248464584,-0.0204751119017601,0.00198962539434433,-0.12404302507638931,-0.07012305408716202,0.01945430226624012,0.009638701565563679,-0.007520951330661774,0.11795603390783072,0.02237278688699007,-0.011256624013185501,-0.006961457431316376,0.005189533112570643,0.11601002980023623,0.013699766248464584,-0.0204751119017601,0.00198962539434433,-0.12404302507638931,-0.07012305408716202,0.01945430226624012,0.009638701565563679,-0.007520951330661774,0.11795603390783072,0.02237278688699007,-0.011256624013185501,-0.006961457431316376,0.0063404539232607,0.10947986794677877,0.011443905739170479,-0.007669903939428124,0.019941750242513212,-0.12732040539450828,-0.07516505860639633,0.02841614188403252,0.01760191821405828,0.0003749730814833138,0.1096434925641532,0.03698598121902065,-0.01803279637314454,0.005931392379824388
20.929438605,0.0,0.0,-0.008726646259971648,-0.003272492347489368,-0.00545415391248228,-0.06737258368058495,0.028582308228126952,-0.9973183978171438,1.0,1.0,0.0,-0.0,-0.0,-0.0,-0.0,-0.0,-0.0,0.0,0.0,-0.0,0.0,0.0,0.0,0.0,0.010983111336827278,-0.023382600396871567,0.021746188402175903,0.07546155154705048,0.22982850670814514,0.335927814245224,0.2871418297290802,0.07540852576494217,0.03809444233775139,-0.04771149903535843,-0.017657853662967682,0.04241274297237396,0.1121613085269928,0.19783855974674225,0.005189238814637065,0.11632739845663309,0.013814127072691917,-0.020404521375894547,0.0016065910458564758,-0.12388675659894943,-0.07010980695486069,0.018852131441235542,0.009523610584437847,-0.0077390847727656364,0.11775858514010906,0.022296891547739506,-0.011229582130908966,-0.0063908956944942474,0.005189238814637065,0.11632739845663309,0.013814127072691917,-0.020404521375894547,0.0016065910458564758,-0.12388675659894943,-0.07010980695486069,0.018852131441235542,0.009523610584437847,-0.0077390847727656364,0.11775858514010906,0.022296891547739506,-0.011229582130908966,-0.0063908956944942474,0.0063404539232607,0.10947986794677877,0.011443905739170479,-0.007669903939428124,0.019941750242513212,-0.12732040539450828,-0.07516505860639633,0.02841614188403252,0.01760191821405828,0.0003749730814833138,0.1096434925641532,0.03698598121902065,-0.01803279637314454,0.005931392379824388
20.949422634,0.0,0.0,0.0,-0.003272492347489368,0.0,-0.06737258368058495,0.028582308228126952,-0.9973183978171438,1.0,1.0,0.0,-0.0,-0.0,-0.0,-0.0,-0.0,-0.0,0.0,0.0,-0.0,0.0,0.0,0.0,0.0,0.010698949918150902,-0.023644428700208664,0.02202635258436203,0.07502257823944092,0.23050329089164734,0.3358161151409149,0.2872369587421417,0.07604710757732391,0.03769546374678612,-0.047387830913066864,-0.017438627779483795,0.04273875057697296,0.11148302257061005,0.19757026433944702,0.005118198459967971,0.11626194138079882,0.013884168118238449,-0.020514264702796936,0.0017752870917320251,-0.1239146813750267,-0.0700860247015953,0.01901177689433098,0.00942386593669653,-0.007658167742192745,0.11781339161098003,0.022378393448889256,-0.011399153620004654,-0.006457969546318054,0.005118198459967971,0.11626194138079882,0.013884168118238449,-0.020514264702796936,0.0017752870917320251,-0.1239146813750267,-0.0700860247015953,0.01901177689433098,0.00942386593669653,-0.007658167742192745,0.11781339161098003,0.022378393448889256,-0.011399153620004654,-0.006457969546318054,0.0063404539232607,0.10947986794677877,0.011443905739170479,-0.007669903939428124,0.019941750242513212,-0.12732040539450828,-0.07516505860639633,0.02841614188403252,0.01760191821405828,0.0003749730814833138,0.1096434925641532,0.03698598121902065,-0.01803279637314454,0.005931392379824388
20.96954812499999,0.0,0.0,0.0,-0.001090830782496456,0.001090830782496456,-0.06737258368058495,0.028582308228126952,-0.9973183978171438,1.0,1.0,0.0,-0.0,-0.0,-0.0,-0.0,-0.0,-0.0,0.0,0.0,-0.0,0.0,0.0,0.0,0.0,0.010606994852423668,-0.023518327623605728,0.022000130265951157,0.07461912930011749,0.23033253848552704,0.3360055983066559,0.28733155131340027,0.07603449374437332,0.037553247064352036,-0.04717397689819336,-0.017506936565041542,0.04268142580986023,0.1110733300447464,0.1974535882472992,0.005095209693536162,0.11629346664994955,0.01387761253863573,-0.020615126937627792,0.00173259899020195,-0.12386731058359146,-0.07006237655878067,0.01900862343609333,0.009388311766088009,-0.007604704238474369,0.1177963144145906,0.022364062257111073,-0.011501576751470566,-0.006487138569355011,0.005095209693536162,0.11629346664994955,0.01387761253863573,-0.020615126937627792,0.00173259899020195,-0.12386731058359146,-0.07006237655878067,0.01900862343609333,0.009388311766088009,-0.007604704238474369,0.1177963144145906,0.022364062257111073,-0.011501576751470566,-0.006487138569355011,0.0063404539232607,0.10947986794677877,0.011443905739170479,-0.007669903939428124,0.019941750242513212,-0.12732040539450828,-0.07516505860639633,0.02841614188403252,0.01760191821405828,0.0003749730814833138,0.1096434925641532,0.03698598121902065,-0.01803279637314454,0.005931392379824388
20.989522394999995,0.0,0.0,0.009817477042468103,0.0,0.003272492347489368,-0.06737258368058495,0.028582308228126952,-0.9973183978171438,1.0,1.0,0.0,-0.0,-0.0,-0.0,-0.0,-0.0,-0.0,0.0,0.0,-0.0,0.0,0.0,0.0,0.0,0.010187042877078056,-0.023560602217912674,0.022679876536130905,0.07361267507076263,0.2311733067035675,0.33596354722976685,0.2873328626155853,0.07679862529039383,0.03709660843014717,-0.04632793366909027,-0.01722489483654499,0.042566798627376556,0.11066029965877533,0.19688552618026733,0.0049902216996997595,0.11628289800137281,0.014047549106180668,-0.020866740494966507,0.0019427910447120667,-0.12387782335281372,-0.0700620487332344,0.019199656322598457,0.009274152107536793,-0.007393193431198597,0.11786682484671474,0.022335405461490154,-0.011604834347963333,-0.006629154086112976,0.0049902216996997595,0.11628289800137281,0.014047549106180668,-0.020866740494966507,0.0019427910447120667,-0.12387782335281372,-0.0700620487332344,0.019199656322598457,0.009274152107536793,-0.007393193431198597,0.11786682484671474,0.022335405461490154,-0.011604834347963333,-0.006629154086112976,0.0063404539232607,0.10947986794677877,0.011443905739170479,-0.007669903939428124,0.019941750242513212,-0.12732040539450828,-0.07516505860639633,0.02841614188403252,0.01760191821405828,0.0003749730814833138,0.1096434925641532,0.03698598121902065,-0.01803279637314454,0.005931392379824388
21.009621312000007,0.0,0.0,0.018544123302439753,0.003272492347489368,0.002181661564992912,-0.06730406396123637,0.028553239256282094,-0.9973238568801387,1.0,1.0,0.0,-0.0,-0.0,-0.0,-0.0,-0.0,-0.0,0.0,0.0,-0.0,0.0,0.0,0.0,0.0,0.00966184027493,-0.02353030815720558,0.023374363780021667,0.0720154345035553,0.2318495810031891,0.33625370264053345,0.28736791014671326,0.0773387998342514,0.036638710647821426,-0.04529312625527382,-0.01697288267314434,0.04216967523097992,0.11011572927236557,0.19608023762702942,0.0048589210491627455,0.11629047151654959,0.014221170917153358,-0.02126605063676834,0.002111859619617462,-0.12380528450012207,-0.07005328685045242,0.01933469995856285,0.009159677661955357,-0.007134491577744484,0.1179298278875649,0.022236124612390995,-0.011740976944565773,-0.006830476224422455,0.0048589210491627455,0.11629047151654959,0.014221170917153358,-0.02126605063676834,0.002111859619617462,-0.12380528450012207,-0.07005328685045242,0.01933469995856285,0.009159677661955357,-0.007134491577744484,0.1179298278875649,0.022236124612390995,-0.011740976944565773,-0.006830476224422455,0.0063404539232607,0.10947986794677877,0.011443905739170479,-0.007669903939428124,0.019941750242513212,-0.12732040539450828,-0.07516505860639633,0.02841614188403252,0.01760191821405828,0.0003749730814833138,0.1096434925641532,0.03698598121902065,-0.01803279637314454,0.005931392379824388
21.029680988999985,0.0,0.0,0.02399827721492203,0.0,0.004363323129985824,-0.06730406396123637,0.028553239256282094,-0.9973238568801387,1.0,1.0,0.0,-0.0,-0.0,-0.0,-0.0,-0.0,-0.0,0.0,0.0,-0.0,0.0,0.0,0.0,0.0,0.00928247906267643,-0.0237739197909832,0.02424713596701622,0.07128686457872391,0.23308289051055908,0.33589422702789307,0.28703877329826355,0.07800108194351196,0.0362929105758667,-0.04481274262070656,-0.016663748770952225,0.042151547968387604,0.11033717542886734,0.19608958065509796,0.004764080746099353,0.11622956860810518,0.014439363963901997,-0.02144819311797619,0.002420186996459961,-0.12389515340328217,-0.07013557106256485,0.01950027048587799,0.009073227643966675,-0.007014395669102669,0.11800711136311293,0.022231592796742916,-0.01168561540544033,-0.006828140467405319,0.004764080746099353,0.11622956860810518,0.014439363963901997,-0.02144819311797619,0.002420186996459961,-0.12389515340328217,-0.07013557106256485,0.01950027048587799,0.009073227643966675,-0.007014395669102669,0.11800711136311293,0.022231592796742916,-0.01168561540544033,-0.006828140467405319,0.0063404539232607,0.10947986794677877,0.011443905739170479,-0.007669903939428124,0.019941750242513212,-0.12732040539450828,-0.07516505860639633,0.02841614188403252,0.01760191821405828,0.0003749730814833138,0.1096434925641532,0.03698598121902065,-0.01803279637314454,0.005931392379824388
21.050482165000005,0.0,0.0,0.026179938779914945,0.001090830782496456,0.0,-0.0673059887688094,0.027534268132694755,-0.997352379028721,1.0,1.0,0.0,-0.0,-0.0,-0.0,-0.0,-0.0,-0.0,0.0,0.0,-0.0,0.0,0.0,0.0,0.0,0.00902572087943554,-0.023483674973249435,0.02450498938560486,0.07058137655258179,0.2335907220840454,0.33598512411117554,0.2871246337890625,0.0782460868358612,0.03631769120693207,-0.04414370656013489,-0.016255058348178864,0.042081497609615326,0.10979992151260376,0.1957228183746338,0.00469989120028913,0.11630212981253862,0.014503827318549156,-0.02162456512451172,0.002547144889831543,-0.12387242913246155,-0.07011410593986511,0.0195615217089653,0.009079422801733017,-0.006847136653959751,0.11810928396880627,0.022214080207049847,-0.011819928884506226,-0.006919831037521362,0.00469989120028913,0.11630212981253862,0.014503827318549156,-0.02162456512451172,0.002547144889831543,-0.12387242913246155,-0.07011410593986511,0.0195615217089653,0.009079422801733017,-0.006847136653959751,0.11810928396880627,0.022214080207049847,-0.011819928884506226,-0.006919831037521362,0.0063404539232607,0.10947986794677877,0.011443905739170479,-0.007669903939428124,0.019941750242513212,-0.12732040539450828,-0.07516505860639633,0.02841614188403252,0.01760191821405828,0.0003749730814833138,0.1096434925641532,0.03698598121902065,-0.01803279637314454,0.005931392379824388
