time_s,forward_cmd_m_s,yaw_cmd_rad_s,gyro_x,gyro_y,gyro_z,grav_x,grav_y,grav_z,left_contact,right_contact,left_hip_yaw_velocity_rad_s,left_hip_roll_velocity_rad_s,left_hip_pitch_velocity_rad_s,left_knee_velocity_rad_s,left_ankle_velocity_rad_s,neck_pitch_velocity_rad_s,head_pitch_velocity_rad_s,head_yaw_velocity_rad_s,head_roll_velocity_rad_s,right_hip_yaw_velocity_rad_s,right_hip_roll_velocity_rad_s,right_hip_pitch_velocity_rad_s,right_knee_velocity_rad_s,right_ankle_velocity_rad_s,left_hip_yaw_action,left_hip_roll_action,left_hip_pitch_action,left_knee_action,left_ankle_action,neck_pitch_action,head_pitch_action,head_yaw_action,head_roll_action,right_hip_yaw_action,right_hip_roll_action,right_hip_pitch_action,right_knee_action,right_ankle_action,left_hip_yaw_unclipped_target_rad,left_hip_roll_unclipped_target_rad,left_hip_pitch_unclipped_target_rad,left_knee_unclipped_target_rad,left_ankle_unclipped_target_rad,neck_pitch_unclipped_target_rad,head_pitch_unclipped_target_rad,head_yaw_unclipped_target_rad,head_roll_unclipped_target_rad,right_hip_yaw_unclipped_target_rad,right_hip_roll_unclipped_target_rad,right_hip_pitch_unclipped_target_rad,right_knee_unclipped_target_rad,right_ankle_unclipped_target_rad,left_hip_yaw_target_rad,left_hip_roll_target_rad,left_hip_pitch_target_rad,left_knee_target_rad,left_ankle_target_rad,neck_pitch_target_rad,head_pitch_target_rad,head_yaw_target_rad,head_roll_target_rad,right_hip_yaw_target_rad,right_hip_roll_target_rad,right_hip_pitch_target_rad,right_knee_target_rad,right_ankle_target_rad,left_hip_yaw_actual_rad,left_hip_roll_actual_rad,left_hip_pitch_actual_rad,left_knee_actual_rad,left_ankle_actual_rad,neck_pitch_actual_rad,head_pitch_actual_rad,head_yaw_actual_rad,head_roll_actual_rad,right_hip_yaw_actual_rad,right_hip_roll_actual_rad,right_hip_pitch_actual_rad,right_knee_actual_rad,right_ankle_actual_rad
18.291791839999973,0.0,0.0,0.018544123302439753,0.0,0.00545415391248228,-0.055081684313494805,-0.08874271361618608,-0.9945304112158784,1.0,1.0,0.0,-0.0,-0.0,-0.0,-0.0,-0.0,-0.0,0.0,0.0,-0.0,0.0,0.0,0.0,0.0,0.020602690055966377,-0.06787687540054321,0.11748786270618439,0.1443888247013092,0.21398554742336273,-0.00010797381401062012,0.036235809326171875,-0.00437663309276104,-0.006911290809512138,-0.05932638794183731,-0.029534582048654556,0.13356707990169525,0.18057751655578613,0.33463215827941895,0.00759413349442184,0.10520382970571518,0.03774954564869404,-0.0031727030873298645,-0.0023541487753391266,-0.2078957036137581,-0.13283631205558777,-0.00109415827319026,-0.0017278227023780346,-0.010642806999385357,0.11478940304368734,0.04508547578006983,0.005874469876289368,0.027807503938674927,0.00759413349442184,0.10520382970571518,0.03774954564869404,-0.0031727030873298645,-0.0023541487753391266,-0.2078957036137581,-0.13283631205558777,-0.00109415827319026,-0.0017278227023780346,-0.010642806999385357,0.11478940304368734,0.04508547578006983,0.0,0.027807503938674927,0.007874434711146502,0.1140818103104353,0.0175798288907128,-0.009203884727313927,-0.0813009817579391,-0.21168934872821854,-0.1365242901218222,-0.006865416237336941,0.011465995062515957,-0.002692988494288291,0.11117747335203901,0.00937432703707887,-0.014964834797373379,-0.05696181992348685
18.309543687999962,0.0,0.0,0.018544123302439753,0.0,0.00545415391248228,-0.055081684313494805,-0.08874271361618608,-0.9945304112158784,1.0,1.0,0.0,-0.0,-0.0,-0.0,-0.0,-0.0,-0.0,0.0,0.0,-0.0,0.0,0.0,0.0,0.0,0.05030709505081177,-0.053406115621328354,0.09285223484039307,0.1035141795873642,0.1612127721309662,-0.024396058171987534,0.04811042547225952,-0.02122425101697445,0.01450667530298233,-0.05452553927898407,-0.03124159201979637,0.13632670044898987,0.1861666440963745,0.37913525104522705,0.015020234743133187,0.1088215196505189,0.03159063868224621,-0.013391364365816116,-0.015547342598438263,-0.21396772470325232,-0.12986765801906586,-0.005306062754243612,0.0036266688257455826,-0.009442594833672047,0.11436265055090189,0.04577538091689348,0.007271751761436462,0.03893327713012695,0.015020234743133187,0.1088215196505189,0.03159063868224621,-0.013391364365816116,-0.015547342598438263,-0.21396772470325232,-0.12986765801906586,-0.005306062754243612,0.0036266688257455826,-0.009442594833672047,0.11436265055090189,0.04577538091689348,0.0,0.03893327713012695,0.007874434711146502,0.1140818103104353,0.0175798288907128,-0.009203884727313927,-0.0813009817579391,-0.21168934872821854,-0.1365242901218222,-0.006865416237336941,0.011465995062515957,-0.002692988494288291,0.11117747335203901,0.00937432703707887,-0.016498815585258737,-0.05696181992348685
18.329049763,0.0,0.0,0.022907446432425576,0.001090830782496456,0.00545415391248228,-0.055081684313494805,-0.08874271361618608,-0.9945304112158784,1.0,1.0,0.0,-0.0,-0.0,-0.07671776931843206,-0.0,-0.0,-0.0,0.0,0.0,-0.0,0.0,0.0,-0.07671776931843206,0.0,0.0509762242436409,-0.05653131380677223,0.0852620005607605,0.09510540962219238,0.15860483050346375,-0.03832441568374634,0.05074030160903931,-0.0102750975638628,0.022417940199375153,-0.0454360730946064,-0.031218044459819794,0.14886705577373505,0.1857437938451767,0.3961636424064636,0.01518751704134047,0.10804022010415792,0.029693080112338066,-0.01549355685710907,-0.016199328005313873,-0.21744981408119202,-0.1292101889848709,-0.0025687743909657,0.005604485049843788,-0.007170228287577629,0.11436853744089603,0.04891046974807978,0.007166039198637009,0.043190374970436096,0.01518751704134047,0.10804022010415792,0.029693080112338066,-0.01549355685710907,-0.016199328005313873,-0.21744981408119202,-0.1292101889848709,-0.0025687743909657,0.005604485049843788,-0.007170228287577629,0.11436853744089603,0.04891046974807978,0.0,0.043190374970436096,0.007874434711146502,0.1140818103104353,0.0175798288907128,-0.010737865515199285,-0.0813009817579391,-0.21168934872821854,-0.1365242901218222,-0.006865416237336941,0.011465995062515957,-0.002692988494288291,0.11117747335203901,0.00937432703707887,-0.016498815585258737,-0.05696181992348685
18.348149244999945,0.0,0.0,0.16035212502697901,0.004363323129985824,0.002181661564992912,-0.18277911146496598,-0.08837671323580773,-0.9791738114194606,1.0,1.0,0.0,-0.0,-0.0,-0.07671776931843206,0.15343553863686413,-0.0,-0.0,0.0,0.0,-0.0,0.0,0.0,0.0,0.0,-0.07500041276216507,-0.12461285293102264,0.005131136626005173,-0.1805824339389801,-0.0576898455619812,-0.2803889513015747,-0.15814681351184845,0.17201367020606995,0.21860897541046143,0.016225136816501617,-0.002718826290220022,0.42271527647972107,0.5935133695602417,0.7164134979248047,-0.016306642210111022,0.09101983532309532,0.009660364128649235,-0.08441551774740219,-0.07027299702167511,-0.2779659479856491,-0.18143196776509285,0.04300341755151749,0.054652243852615356,0.008245074190199375,0.12149334198329598,0.11737252492457628,0.10910843312740326,0.12325283885002136,-0.016306642210111022,0.09101983532309532,0.009660364128649235,-0.08441551774740219,-0.07027299702167511,-0.2779659479856491,-0.18143196776509285,0.04300341755151749,0.054652243852615356,0.008245074190199375,0.12149334198329598,0.11737252492457628,0.0,0.12325283885002136,0.007874434711146502,0.1140818103104353,0.0175798288907128,-0.015339807878856249,-0.07823302018216749,-0.21168934872821854,-0.1365242901218222,-0.006865416237336941,0.011465995062515957,-0.002692988494288291,0.11117747335203901,0.00937432703707887,-0.016498815585258737,-0.05696181992348685
18.368245766999962,0.0,0.0,0.17016960206944712,0.002181661564992912,-0.004363323129985824,-0.05507160043716738,-0.09076615627607215,-0.9943483412266331,1.0,1.0,0.0,-0.0,-0.0,-0.2301533079552962,0.2301533079552962,-0.0,-0.0,0.0,0.0,-0.0,0.0,0.0,-0.15343553863686413,0.0,0.00792708434164524,-0.07742136716842651,0.05453583970665932,-0.06610308587551117,0.08601999282836914,-0.04132501408457756,-0.04424869269132614,0.048122964799404144,0.08256654441356659,0.04144318774342537,-0.05999627336859703,0.21262869238853455,0.2656818926334381,0.4870162010192871,0.004425232065841556,0.10281770676374435,0.02201153989881277,-0.05579568073153496,-0.034345537424087524,-0.21819996368139982,-0.15295743755996227,0.012030741199851036,0.020641636103391647,0.014549586921930313,0.10717398021370173,0.06485087890177965,0.027150563895702362,0.06590351462364197,0.004425232065841556,0.10281770676374435,0.02201153989881277,-0.05579568073153496,-0.034345537424087524,-0.21819996368139982,-0.15295743755996227,0.012030741199851036,0.020641636103391647,0.014549586921930313,0.10717398021370173,0.06485087890177965,0.0,0.06590351462364197,0.007874434711146502,0.11254782952254994,0.0175798288907128,-0.018407769454627854,-0.07363107781851097,-0.21168934872821854,-0.1365242901218222,-0.006865416237336941,0.011465995062515957,-0.002692988494288291,0.11117747335203901,0.00937432703707887,-0.019566777161030342,-0.05696181992348685
18.38823645499997,0.0,0.0,0.18435040224190105,0.013089969389957472,-0.02945243112740431,-0.1817918831365007,-0.08938937900082078,-0.9792656688292163,1.0,1.0,0.0,-0.07671776931843206,-0.0,-0.15343553863686413,0.3835888465921603,-0.15343553863686413,-0.0,0.0,0.0,-0.0,0.0,0.0,-0.07671776931843206,0.07671776931843206,-0.09226130694150925,-0.13754436373710632,-0.004101639613509178,-0.23176509141921997,-0.05648760497570038,-0.2650700509548187,-0.2178526222705841,0.18152667582035065,0.23482578992843628,0.02988389879465103,-0.01820109784603119,0.44944921135902405,0.6112139225006104,0.7493215203285217,-0.020621865754947066,0.0877869576215744,0.007352170068770647,-0.09721118211746216,-0.0699724368751049,-0.2741362228989601,-0.19635841995477676,0.04538166895508766,0.05870644748210907,0.011659764684736729,0.11762277409434319,0.12405600864440203,0.11353357136249542,0.13147984445095062,-0.020621865754947066,0.0877869576215744,0.007352170068770647,-0.09721118211746216,-0.0699724368751049,-0.2741362228989601,-0.19635841995477676,0.04538166895508766,0.05870644748210907,0.011659764684736729,0.11762277409434319,0.12405600864440203,0.0,0.13147984445095062,0.007874434711146502,0.11254782952254994,0.0175798288907128,-0.021475731030399015,-0.0659611738790824,-0.2162912910918755,-0.1365242901218222,-0.006865416237336941,0.011465995062515957,-0.002692988494288291,0.11117747335203901,0.00937432703707887,-0.0211007579489157,-0.05389385834771569
18.40852042199998,0.0,0.0,0.1832595714594046,0.037088246604879506,-0.050178215994836975,-0.181954397459984,-0.09047456227292022,-0.9791358183758255,1.0,1.0,-0.07671776931843206,-0.0,-0.0,-0.15343553863686413,0.2301533079552962,-0.2301533079552962,-0.0,0.0,0.0,-0.0,0.0,0.15343553863686413,0.0,0.15343553863686413,-0.11019648611545563,-0.18013159930706024,-0.10694301128387451,-0.2943711578845978,-0.0432983934879303,-0.3099878132343292,-0.32809460163116455,0.17888982594013214,0.30255332589149475,0.06957599520683289,-0.07460837811231613,0.5471504330635071,0.7437719106674194,0.8584802150726318,-0.02510566054843366,0.07714014872908592,-0.018358172848820686,-0.11286269873380661,-0.06667513400316238,-0.28536566346883774,-0.22391891479492188,0.044722456485033035,0.07563833147287369,0.021582788787782192,0.10352095402777195,0.14848131407052279,0.1466730684041977,0.15876951813697815,-0.02510566054843366,0.07714014872908592,-0.018358172848820686,-0.11286269873380661,-0.06667513400316238,-0.28536566346883774,-0.22391891479492188,0.044722456485033035,0.07563833147287369,0.021582788787782192,0.10352095402777195,0.14848131407052279,0.0,0.15876951813697815,0.0063404539232607,0.11254782952254994,0.019113809678598603,-0.024543692606170175,-0.06135923151542544,-0.22089323345553247,-0.1365242901218222,-0.006865416237336941,0.011465995062515957,-0.002692988494288291,0.11117747335203901,0.013976269400735833,-0.0211007579489157,-0.05082589677194409
18.428441238999994,0.0,0.0,-0.11344640137963143,0.014180800172453928,-0.028361600344907856,-0.18082043538909215,-0.08940565972016222,-0.9794440250242491,1.0,1.0,-0.07671776931843206,-0.0,0.07671776931843206,-0.15343553863686413,0.30687107727372825,-0.30687107727372825,-0.0,0.0,0.0,-0.0,0.0,0.30687107727372825,-0.07671776931843206,0.30687107727372825,-0.10418650507926941,-0.24135395884513855,-0.20601660013198853,-0.22981590032577515,0.038370318710803986,-0.32387223839759827,-0.43167558312416077,0.11680630594491959,0.40046176314353943,0.09902097284793854,-0.06479302048683167,0.6778494715690613,0.7833752632141113,0.8477340340614319,-0.023603165289387107,0.061834558844566345,-0.04312657006084919,-0.09672388434410095,-0.04625795595347881,-0.288836769759655,-0.24981416016817093,0.029201576486229897,0.10011544078588486,0.028944033198058605,0.10597479343414307,0.18115607369691133,0.15657390654087067,0.15608297288417816,-0.023603165289387107,0.061834558844566345,-0.04312657006084919,-0.09672388434410095,-0.04625795595347881,-0.288836769759655,-0.24981416016817093,0.029201576486229897,0.10011544078588486,0.028944033198058605,0.10597479343414307,0.18115607369691133,0.0,0.15608297288417816,0.003272492347489539,0.11101384873466413,0.023715752042255567,-0.02914563496982714,-0.05522330836388312,-0.2285631373949606,-0.1365242901218222,-0.006865416237336941,0.011465995062515957,-0.002692988494288291,0.11117747335203901,0.021646173340163957,-0.022634738736801503,-0.044689973620401766
18.44783775899998,0.0,0.0,-0.136353847812057,-0.061086523819801536,0.028361600344907856,-0.054059740751728876,-0.08975956955004039,-0.9944952308101066,1.0,1.0,-0.2301533079552962,-0.15343553863686413,0.30687107727372825,-0.2301533079552962,0.15343553863686413,-0.5370243852290244,-0.07671776931843206,0.07671776931843206,0.0,-0.0,0.0,0.3835888465921603,0.0,0.3835888465921603,-0.020217424258589745,-0.10966485738754272,-0.02127469703555107,-0.033262595534324646,0.1779254972934723,-0.04055557772517204,-0.21312063932418823,-0.03835089132189751,0.13784028589725494,0.10773063451051712,-0.06409905105829239,0.40572983026504517,0.24829363822937012,0.5189172029495239,-0.0026108950842171907,0.0947568342089653,0.003058905713260174,-0.04758555814623833,-0.011369161307811737,-0.21800760459154844,-0.1951754242181778,-0.009587722830474377,0.034460071474313736,0.03112144861370325,0.10614828579127789,0.1131261633709073,0.022803500294685364,0.07387876510620117,-0.0026108950842171907,0.0947568342089653,0.003058905713260174,-0.04758555814623833,-0.011369161307811737,-0.21800760459154844,-0.1951754242181778,-0.009587722830474377,0.034460071474313736,0.03112144861370325,0.10614828579127789,0.1131261633709073,0.0,0.07387876510620117,-0.002863430804053227,0.10794588715889297,0.026783713618026728,-0.0337475773334841,-0.052155346788111956,-0.23930100291015988,-0.13805827090970757,-0.0053314354494515825,0.011465995062515957,-0.0011590077064024887,0.11117747335203901,0.027782096491706723,-0.022634738736801503,-0.03548608889308784
18.468093891999956,0.0,0.0,-0.3425208657038872,-0.04363323129985824,0.032724923474893676,-0.05510591397325785,-0.08367935084828043,-0.9949678911838222,1.0,1.0,-0.2301533079552962,-0.07671776931843206,0.07671776931843206,-0.2301533079552962,0.15343553863686413,-0.4603066159105924,-0.2301533079552962,0.15343553863686413,0.0,0.30687107727372825,0.0,0.30687107727372825,-0.07671776931843206,0.4603066159105924,-0.030389951542019844,-0.10867124795913696,0.024880889803171158,0.08384134620428085,0.2487000972032547,-0.05572699382901192,-0.12470568716526031,-0.04259088635444641,0.08096969127655029,0.04969165101647377,-0.03237701579928398,0.4011813998222351,0.1128816232085228,0.44125163555145264,-0.005154026905074716,0.09500523656606674,0.014597802422940731,-0.018309572711586952,0.006324488669633865,-0.2218004586175084,-0.17307168617844582,-0.010647721588611603,0.020242422819137573,0.016611702740192413,0.11407879460602999,0.11198905576020479,-0.011049503460526466,0.05446237325668335,-0.005154026905074716,0.09500523656606674,0.014597802422940731,-0.018309572711586952,0.006324488669633865,-0.2218004586175084,-0.17307168617844582,-0.010647721588611603,0.020242422819137573,0.016611702740192413,0.11407879460602999,0.11198905576020479,-0.011049503460526466,0.05446237325668335,-0.005931392379824388,0.10794588715889297,0.026783713618026728,-0.038349519697141066,-0.04908738521234035,-0.2485048876374738,-0.14266021327336453,-0.0007294930857946191,0.011465995062515957,0.004976915445140277,0.11117747335203901,0.033918019643249045,-0.024168719524687306,-0.024748223377888554
18.488062635999995,0.0,0.0,-0.26398104936414235,-0.07744898555724837,-0.039269908169872414,-0.056089461443693936,-0.0785252460211715,-0.9953329885280959,1.0,1.0,-0.07671776931843206,-0.07671776931843206,-0.0,-0.15343553863686413,0.15343553863686413,-0.15343553863686413,-0.30687107727372825,0.30687107727372825,0.30687107727372825,0.2301533079552962,0.0,0.4603066159105924,-0.07671776931843206,0.6137421545474565,-0.020361460745334625,-0.1025669276714325,0.04500768706202507,0.10272461920976639,0.27446097135543823,-0.0775873139500618,-0.07899397611618042,-0.014705749228596687,0.06226236745715141,0.034116704016923904,-0.04346531629562378,0.37617382407188416,0.07704268395900726,0.41548341512680054,-0.002646904205903411,0.09653131663799286,0.01962950173765421,-0.013588754460215569,0.012764707207679749,-0.22726553864777088,-0.16164375841617584,-0.003676437307149172,0.015565591864287853,0.012717965990304947,0.11130671948194504,0.10573716182261705,-0.02000923827290535,0.048020318150520325,-0.002646904205903411,0.09653131663799286,0.01962950173765421,-0.013588754460215569,0.012764707207679749,-0.22726553864777088,-0.16164375841617584,-0.003676437307149172,0.015565591864287853,0.012717965990304947,0.11130671948194504,0.10573716182261705,-0.02000923827290535,0.048020318150520325,-0.005931392379824388,0.10334394479523601,0.025249732830140925,-0.04141748127291223,-0.04601942363656919,-0.2485048876374738,-0.15033011721279266,0.005406430065748147,0.01760191821405828,0.012646819384568402,0.11117747335203901,0.04312190437056297,-0.025702700312572664,-0.014010357862688824
18.508182527999963,0.0,0.0,-0.15926129424448257,-0.16907877128695067,-0.16580627893946132,-0.059156916005560424,-0.07445611842079157,-0.9954681038177066,1.0,1.0,-0.07671776931843206,-0.30687107727372825,-0.07671776931843206,-0.3835888465921603,0.2301533079552962,-0.0,-0.3835888465921603,0.2301533079552962,0.30687107727372825,0.5370243852290244,-0.07671776931843206,0.3835888465921603,0.0,0.6137421545474565,-0.027170823886990547,-0.11564773321151733,0.03756304457783699,0.07981350272893906,0.28972065448760986,-0.10515467822551727,-0.06843987107276917,0.017318470403552055,0.07953199744224548,0.043972376734018326,-0.05241166055202484,0.3932366371154785,0.0890888050198555,0.3920378088951111,-0.004349244991317391,0.09326111525297165,0.01776834111660719,-0.0193165335804224,0.016579627990722656,-0.23415737971663475,-0.15900523215532303,0.004329617600888014,0.01988299936056137,0.015181884169578552,0.10907013341784477,0.11000286508351564,-0.01699770800769329,0.04215891659259796,-0.004349244991317391,0.09326111525297165,0.01776834111660719,-0.0193165335804224,0.016579627990722656,-0.23415737971663475,-0.15900523215532303,0.004329617600888014,0.01988299936056137,0.015181884169578552,0.10907013341784477,0.11000286508351564,-0.01699770800769329,0.04215891659259796,-0.00746537316771019,0.09720802164369324,0.022181771254369764,-0.05062136600022615,-0.04141748127291223,-0.2485048876374738,-0.15800002115222123,0.01000837242940511,0.023737841365601045,0.020316723323996526,0.1096434925641532,0.0523257890978769,-0.025702700312572664,-0.000204530771717934
18.528194937999956,0.0,0.0,0.007635815477475192,-0.22362031041177347,-0.12217304763960307,-0.06226840541284104,-0.07451792778913763,-0.9952736930740985,1.0,1.0,0.0,-0.30687107727372825,-0.2301533079552962,-0.3835888465921603,0.2301533079552962,-0.0,-0.3835888465921603,0.2301533079552962,0.30687107727372825,0.07671776931843206,0.0,0.3835888465921603,0.0,0.6137421545474565,-0.052494414150714874,-0.11924146115779877,0.012325044721364975,0.023453883826732635,0.2868831753730774,-0.10515038669109344,-0.07522706687450409,0.04821236431598663,0.08590665459632874,0.05204583704471588,-0.0647144541144371,0.38162168860435486,0.13441379368305206,0.43930745124816895,-0.010680142557248473,0.09236268326640129,0.011458841152489185,-0.03340643830597401,0.01587025821208954,-0.2341563068330288,-0.16070203110575676,0.012053091078996658,0.021476663649082184,0.01720024924725294,0.1059944350272417,0.10709912795573473,-0.00566646084189415,0.05397632718086243,-0.010680142557248473,0.09236268326640129,0.011458841152489185,-0.03340643830597401,0.01587025821208954,-0.2341563068330288,-0.16070203110575676,0.012053091078996658,0.021476663649082184,0.01720024924725294,0.1059944350272417,0.10709912795573473,-0.00566646084189415,0.05397632718086243,-0.00746537316771019,0.09107209849215092,0.0175798288907128,-0.05675728915176892,-0.03681553890925526,-0.2485048876374738,-0.16566992509164935,0.014610314793062074,0.029873764517143367,0.020316723323996526,0.1096434925641532,0.05846171224941922,-0.025702700312572664,0.012067315531367154
18.548246088999974,0.0,0.0,-0.07963064712224129,-0.23561944901923448,-0.0916297857297023,-0.06736019609537906,-0.07246324125411989,-0.9950938059544634,1.0,1.0,0.0,-0.2301533079552962,-0.15343553863686413,-0.2301533079552962,0.07671776931843206,-0.0,-0.3835888465921603,0.15343553863686413,0.3835888465921603,-0.0,0.0,0.3835888465921603,-0.07671776931843206,0.6904599238658886,-0.06182411313056946,-0.13459832966327667,0.042479757219552994,0.026538163423538208,0.31850481033325195,-0.12859521806240082,-0.0819694772362709,0.057247959077358246,0.11298081278800964,0.0772840604186058,-0.060026418417692184,0.47560393810272217,0.09406186640262604,0.3655394911766052,-0.013012567302212119,0.08852346614003181,0.01899751927703619,-0.032635368406772614,0.02377566695213318,-0.24001751467585564,-0.16238763369619846,0.014311989769339561,0.02824520319700241,0.023509805090725422,0.10716644395142794,0.13059469033032656,-0.015754442662000656,0.0355343371629715,-0.013012567302212119,0.08852346614003181,0.01899751927703619,-0.032635368406772614,0.02377566695213318,-0.24001751467585564,-0.16238763369619846,0.014311989769339561,0.02824520319700241,0.023509805090725422,0.10716644395142794,0.13059469033032656,-0.015754442662000656,0.0355343371629715,-0.00746537316771019,0.08800413691637976,0.0175798288907128,-0.06135923151542544,-0.035281558121369905,-0.2485048876374738,-0.17180584824319167,0.016144295580947432,0.03600968766868613,0.020316723323996526,0.1096434925641532,0.06613161618884779,-0.027236681100458467,0.027407123410223402
18.56829874099998,0.0,0.0,-0.1734420944169365,-0.25743606466916363,-0.14180800172453928,-0.0714379071670193,-0.06939682410510446,-0.995027992683483,1.0,1.0,0.0,-0.15343553863686413,-0.0,-0.15343553863686413,0.2301533079552962,-0.0,-0.30687107727372825,0.0,0.2301533079552962,-0.0,0.0,0.30687107727372825,0.0,0.6904599238658886,-0.0610242635011673,-0.12854988873004913,0.10373900830745697,0.040658995509147644,0.35385018587112427,-0.13079607486724854,-0.07225511968135834,0.06046466529369354,0.12947788834571838,0.07791528105735779,-0.046237654983997345,0.5439128875732422,0.011358991265296936,0.26033514738082886,-0.012812604894861579,0.0900355763733387,0.034312332049012184,-0.029105160385370255,0.03261201083660126,-0.24056772887706757,-0.15995904430747032,0.015116166323423386,0.032369472086429596,0.023667610250413418,0.11061363480985165,0.14767192769795656,-0.03643016144633293,0.009233251214027405,-0.012812604894861579,0.0900355763733387,0.034312332049012184,-0.029105160385370255,0.03261201083660126,-0.24056772887706757,-0.15995904430747032,0.015116166323423386,0.032369472086429596,0.023667610250413418,0.11061363480985165,0.14767192769795656,-0.03643016144633293,0.009233251214027405,-0.00746537316771019,0.08647015612849396,0.0175798288907128,-0.06289321230331124,-0.03067961575771294,-0.2485048876374738,-0.17794177139473444,0.016144295580947432,0.0421456108202289,0.020316723323996526,0.1096434925641532,0.07226753934039011,-0.027236681100458467,0.04121295050119429
18.588302891999945,0.0,0.0,-0.3196134192714616,-0.26616271092913524,-0.2912518189265537,-0.07653782486415724,-0.06429177288589208,-0.9949917232340441,1.0,1.0,0.0,-0.0,-0.0,-0.07671776931843206,0.3835888465921603,-0.0,-0.2301533079552962,0.07671776931843206,0.30687107727372825,-0.0,0.0,0.30687107727372825,0.0,0.6904599238658886,-0.04394802451133728,-0.09843312203884125,0.17730365693569183,0.06519243121147156,0.38587456941604614,-0.11862502992153168,-0.04421562701463699,0.05356954038143158,0.1349935680627823,0.05840016156435013,-0.03327393904328346,0.5914679765701294,-0.08343234658241272,0.14273545145988464,-0.008543545147404075,0.09756476804614067,0.0527034942060709,-0.022971801459789276,0.040618106722831726,-0.23752496764063835,-0.15294917114078999,0.013392385095357895,0.03374839201569557,0.018788830377161503,0.11385456379503012,0.15956069994717836,-0.060127995908260345,-0.02016667276620865,-0.008543545147404075,0.09756476804614067,0.0527034942060709,-0.022971801459789276,0.040618106722831726,-0.23752496764063835,-0.15294917114078999,0.013392385095357895,0.03374839201569557,0.018788830377161503,0.11385456379503012,0.15956069994717836,-0.060127995908260345,-0.02016667276620865,-0.00746537316771019,0.08647015612849396,0.0175798288907128,-0.06289321230331124,-0.023009711818284817,-0.2485048876374738,-0.1825437137583914,0.019212257156719037,0.04828153397177122,0.020316723323996526,0.1081095117762674,0.07840346249193288,-0.027236681100458467,0.05501877759216518
18.60858813599998,0.0,0.0,-0.3861540970037454,-0.25416357232167425,-0.6130468997630083,-0.08062420845707202,-0.05817189724117855,-0.9950456107043698,1.0,1.0,0.0,-0.0,-0.0,-0.0,0.3835888465921603,-0.0,-0.07671776931843206,0.07671776931843206,0.2301533079552962,-0.0,-0.07671776931843206,0.30687107727372825,0.0,0.6904599238658886,-0.0311747957020998,-0.0794471949338913,0.21518556773662567,0.08171462267637253,0.4199017286300659,-0.10167622566223145,-0.0051980167627334595,0.05103111267089844,0.14316099882125854,0.03217553347349167,-0.026453986763954163,0.6097713112831116,-0.14984196424484253,0.07065995037555695,-0.005350237945094705,0.10231124982237816,0.06217397190630436,-0.018841253593564034,0.04912489652633667,-0.2332877665758133,-0.1431947685778141,0.01275777816772461,0.035790249705314636,0.012232673354446888,0.11555955186486244,0.1641365336254239,-0.0767304003238678,-0.03818554803729057,-0.005350237945094705,0.10231124982237816,0.06217397190630436,-0.018841253593564034,0.04912489652633667,-0.2332877665758133,-0.1431947685778141,0.01275777816772461,0.035790249705314636,0.012232673354446888,0.11555955186486244,0.1641365336254239,-0.0767304003238678,-0.03818554803729057,-0.00746537316771019,0.08647015612849396,0.0175798288907128,-0.06289321230331124,-0.01380582709097089,-0.2485048876374738,-0.18407769454627676,0.020746237944604395,0.052883476335428184,0.020316723323996526,0.1081095117762674,0.0845393856434752,-0.027236681100458467,0.06729062389525027
18.628497082999957,0.0,0.0,-0.3370667117914049,-0.31852258848896514,-0.8268497331323136,-0.08571495508608215,-0.05306163886281277,-0.9949057286777393,1.0,1.0,0.0,-0.0,-0.0,-0.0,0.3835888465921603,-0.0,-0.0,0.07671776931843206,0.07671776931843206,-0.0,0.0,0.2301533079552962,0.0,0.5370243852290244,-0.04184601083397865,-0.0658254474401474,0.2402929663658142,0.0908709317445755,0.4503093361854553,-0.09254845976829529,0.009850628674030304,0.05027541518211365,0.13472141325473785,0.015460507944226265,-0.03978767991065979,0.5889301300048828,-0.15840435028076172,0.047334060072898865,-0.008018041728064418,0.10571668669581413,0.0684508215636015,-0.01655217632651329,0.05672679841518402,-0.23100582510232925,-0.13943260721862316,0.012568853795528412,0.033680353313684464,0.008053916972130537,0.11222612857818604,0.15892623830586672,-0.0788709968328476,-0.04401702061295509,-0.008018041728064418,0.10571668669581413,0.0684508215636015,-0.01655217632651329,0.05672679841518402,-0.23100582510232925,-0.13943260721862316,0.012568853795528412,0.033680353313684464,0.008053916972130537,0.11222612857818604,0.15892623830586672,-0.0788709968328476,-0.04401702061295509,-0.00746537316771019,0.08647015612849396,0.019113809678598603,-0.06289321230331124,-0.007669903939428124,-0.2485048876374738,-0.18407769454627676,0.022280218732490198,0.054417457123313986,0.020316723323996526,0.1081095117762674,0.08914132800713216,-0.027236681100458467,0.07802848941044956
18.648567678999996,0.0,0.0,-0.3097959422289935,-0.2825251726665821,-0.9337511498169663,-0.08978315854816113,-0.04897263193536062,-0.9947565861870126,1.0,1.0,0.07671776931843206,-0.0,0.07671776931843206,-0.0,0.15343553863686413,-0.0,-0.0,0.07671776931843206,0.0,-0.0,0.0,0.2301533079552962,0.0,0.5370243852290244,-0.041805949062108994,-0.0498918853700161,0.25715118646621704,0.09168141335248947,0.4651976227760315,-0.06762994080781937,0.019583627581596375,0.04107564687728882,0.1208614706993103,0.007584810256958008,-0.04526297375559807,0.5531002283096313,-0.1680111587047577,0.059926025569438934,-0.008008026285097003,0.10970007721334696,0.0726653765887022,-0.016349555924534798,0.060448870062828064,-0.22477619536221027,-0.13699935749173164,0.010268911719322205,0.030215367674827576,0.006084992550313473,0.11085730511695147,0.14996876288205385,-0.08127269893884659,-0.040869029238820076,-0.008008026285097003,0.10970007721334696,0.0726653765887022,-0.016349555924534798,0.060448870062828064,-0.22477619536221027,-0.13699935749173164,0.010268911719322205,0.030215367674827576,0.006084992550313473,0.11085730511695147,0.14996876288205385,-0.08127269893884659,-0.040869029238820076,-0.005931392379824388,0.08493617534060816,0.022181771254369764,-0.05982525072754008,-0.004601942363656963,-0.2485048876374738,-0.18407769454627676,0.022280218732490198,0.054417457123313986,0.020316723323996526,0.1081095117762674,0.09374327037078913,-0.028770661888343825,0.08876635492564929
18.668608940999945,0.0,0.0,-0.2901609881440573,-0.22362031041177347,-0.9075712110370514,-0.09384701955035073,-0.04488335717625469,-0.9945743919738256,1.0,1.0,0.0,-0.15343553863686413,0.2301533079552962,0.2301533079552962,0.30687107727372825,-0.0,-0.0,0.0,0.07671776931843206,-0.0,0.0,0.2301533079552962,-0.15343553863686413,0.4603066159105924,-0.0553651787340641,-0.05134286358952522,0.2558789551258087,0.08272551000118256,0.4652559757232666,-0.057436417788267136,0.015596061944961548,0.05357169359922409,0.1254831999540329,0.0023506777361035347,-0.04287053272128105,0.5346009731292725,-0.15367797017097473,0.08125226199626923,-0.01139783370308578,0.10933733265846968,0.07234731875360012,-0.018588531762361526,0.06046345829963684,-0.22222781460732222,-0.13799624890089035,0.013392923399806023,0.031370799988508224,0.0047764594200998545,0.11145541537553072,0.14534394908696413,-0.07768940180540085,-0.0355374701321125,-0.01139783370308578,0.10933733265846968,0.07234731875360012,-0.018588531762361526,0.06046345829963684,-0.22222781460732222,-0.13799624890089035,0.013392923399806023,0.031370799988508224,0.0047764594200998545,0.11145541537553072,0.14534394908696413,-0.07768940180540085,-0.0355374701321125,-0.005931392379824388,0.0834021945527228,0.02831769440591253,-0.05829126993965428,0.0015339807878858025,-0.2485048876374738,-0.18407769454627676,0.022280218732490198,0.055951437911199345,0.020316723323996526,0.1096434925641532,0.09987919352233189,-0.03337260425200079,0.0949022780771916
18.688636629999962,0.0,0.0,-0.2945243112740431,-0.17998707911191522,-0.8803004414746399,-0.09588537623281854,-0.04080228775864619,-0.9945557641170008,1.0,1.0,0.0,-0.0,0.30687107727372825,-0.0,0.3835888465921603,-0.0,0.07671776931843206,0.0,0.0,-0.07671776931843206,0.07671776931843206,0.4603066159105924,-0.2301533079552962,0.2301533079552962,-0.058178290724754333,-0.008375506848096848,0.2821636199951172,0.11846446245908737,0.4989284873008728,-0.04888002946972847,0.008740387856960297,0.055179402232170105,0.10363037884235382,0.014071587473154068,-0.05487014725804329,0.514286994934082,-0.18548309803009033,0.11483500897884369,-0.012101111700758338,0.12007917184382677,0.07891848497092724,-0.009653793647885323,0.06888158619403839,-0.22008871752768755,-0.13971016742289066,0.013794850558042526,0.025907594710588455,0.007706686854362488,0.10845551174134016,0.14026545453816652,-0.08564068377017975,-0.027141783386468887,-0.012101111700758338,0.12007917184382677,0.07891848497092724,-0.009653793647885323,0.06888158619403839,-0.22008871752768755,-0.13971016742289066,0.013794850558042526,0.025907594710588455,0.007706686854362488,0.10845551174134016,0.14026545453816652,-0.08564068377017975,-0.027141783386468887,-0.005931392379824388,0.08647015612849396,0.032919636769569494,-0.05675728915176892,0.009203884727313927,-0.2485048876374738,-0.1810097329705056,0.022280218732490198,0.055951437911199345,0.017248761748225365,0.11117747335203901,0.10754909746176002,-0.03797454661565775,0.09950422044084857
18.708736706999957,0.0,0.0,-0.2748893571891069,-0.10690141668465268,-0.9468411192069238,-0.09690755096230491,-0.037742940901108225,-0.9945774967183925,1.0,1.0,0.0,0.15343553863686413,0.15343553863686413,0.15343553863686413,0.2301533079552962,-0.0,0.2301533079552962,0.0,0.0,-0.2301533079552962,0.15343553863686413,0.3835888465921603,-0.3835888465921603,0.15343553863686413,-0.0679556131362915,-0.011826485395431519,0.26577791571617126,0.1106812059879303,0.5110884308815002,-0.028810076415538788,0.0181867778301239,0.05157271772623062,0.08961193263530731,0.013005200773477554,-0.06123838201165199,0.49847543239593506,-0.20250597596168518,0.11770830303430557,-0.01454544230364263,0.1192164272069931,0.07482205890119076,-0.011599607765674591,0.07192157208919525,-0.21507122926414013,-0.13734856992959976,0.012893179431557655,0.022402983158826828,0.007440090179443359,0.10686345305293798,0.13631256390362978,-0.08989640325307846,-0.026423459872603416,-0.01454544230364263,0.1192164272069931,0.07482205890119076,-0.011599607765674591,0.07192157208919525,-0.21507122926414013,-0.13734856992959976,0.012893179431557655,0.022402983158826828,0.007440090179443359,0.10686345305293798,0.13631256390362978,-0.08989640325307846,-0.026423459872603416,-0.005931392379824388,0.08953811770426512,0.032919636769569494,-0.052155346788111956,0.015339807878856249,-0.2485048876374738,-0.17640779060684864,0.022280218732490198,0.055951437911199345,0.012646819384568402,0.11424543492781017,0.11521900140118814,-0.045644450555085876,0.10257218201661973
18.728905802999975,0.0,0.0,-0.17562375598192942,-0.022907446432425576,-1.0810133054539879,-0.09590054492215225,-0.0367278682680583,-0.9947130989265791,1.0,0.0,0.0,0.15343553863686413,-0.0,0.2301533079552962,0.30687107727372825,-0.0,0.2301533079552962,0.0,0.0,-0.07671776931843206,0.2301533079552962,0.2301533079552962,-0.30687107727372825,0.07671776931843206,-0.06193995475769043,-0.008684657514095306,0.2539685070514679,0.09113706648349762,0.48834699392318726,0.004282359033823013,0.03636819124221802,0.04539584368467331,0.06909090280532837,0.019384417682886124,-0.07077967375516891,0.4124400317668915,-0.18451398611068726,0.14398133754730225,-0.013041527708992362,0.12000188417732716,0.07186970673501492,-0.01648564264178276,0.066236212849617,-0.20679812040179968,-0.13280321657657623,0.011348960921168327,0.017272725701332092,0.009034894406795502,0.10447813011705875,0.11480371374636889,-0.08539840579032898,-0.019855201244354248,-0.013041527708992362,0.12000188417732716,0.07186970673501492,-0.01648564264178276,0.066236212849617,-0.20679812040179968,-0.13280321657657623,0.011348960921168327,0.017272725701332092,0.009034894406795502,0.10447813011705875,0.11480371374636889,-0.08539840579032898,-0.019855201244354248,-0.005931392379824388,0.09107209849215092,0.035987598345340654,-0.04908738521234035,0.019941750242513212,-0.2485048876374738,-0.17180584824319167,0.023814199520375556,0.055951437911199345,0.015714780960339562,0.11731339650358133,0.1198209437648451,-0.05178037370662864,0.10257218201661973
18.748886638999977,0.0,0.0,-0.1265363707695889,0.08726646259971647,-1.1573714602287397,-0.09387828414189951,-0.036734980751178065,-0.9949057286777393,1.0,0.0,0.0,0.07671776931843206,0.2301533079552962,0.15343553863686413,0.15343553863686413,-0.0,0.2301533079552962,0.07671776931843206,0.07671776931843206,0.2301533079552962,0.0,0.30687107727372825,-0.30687107727372825,-0.07671776931843206,-0.05652382969856262,-0.021208565682172775,0.234714537858963,0.05987897515296936,0.4250374436378479,0.03217484802007675,0.048761025071144104,0.047149695456027985,0.07068082690238953,0.02152574434876442,-0.07236393541097641,0.34325793385505676,-0.13193324208259583,0.19452328979969025,-0.01168749644421041,0.11687090713530779,0.0670562144368887,-0.024300165474414825,0.050408825278282166,-0.19982499815523624,-0.1297050081193447,0.011787423864006996,0.01767020672559738,0.009570226073265076,0.10408206470310688,0.0975081892684102,-0.07225321978330612,-0.007219713181257248,-0.01168749644421041,0.11687090713530779,0.0670562144368887,-0.024300165474414825,0.050408825278282166,-0.19982499815523624,-0.1297050081193447,0.011787423864006996,0.01767020672559738,0.009570226073265076,0.10408206470310688,0.0975081892684102,-0.07225321978330612,-0.007219713181257248,-0.005931392379824388,0.09107209849215092,0.04058954070899762,-0.04601942363656919,0.023009711818284817,-0.2485048876374738,-0.1687378866674205,0.023814199520375556,0.05748541869908515,0.017248761748225365,0.11731339650358133,0.12595686691638786,-0.05791629685817141,0.09950422044084857
18.76899184599995,0.0,0.0,-0.21271200258680892,0.06326818538479445,-0.9599310885968813,-0.09287987238760699,-0.03266105402641125,-0.9951414898672177,1.0,0.0,0.0,-0.0,0.2301533079552962,0.07671776931843206,0.2301533079552962,-0.0,0.15343553863686413,0.0,-0.07671776931843206,-0.15343553863686413,0.0,0.2301533079552962,-0.2301533079552962,-0.2301533079552962,-0.04679689556360245,-0.03083394095301628,0.20089899003505707,0.06598899513483047,0.3895998001098633,0.03454744070768356,0.04270559549331665,0.09052334725856781,0.09066325426101685,-0.005896646063774824,-0.06276316195726395,0.3924522399902344,-0.08200503885746002,0.21885228157043457,-0.009255762910470366,0.11446456331759691,0.05860232748091221,-0.022772660478949547,0.04154941439628601,-0.19923184998333454,-0.13121886551380157,0.022630836814641953,0.02266581356525421,0.0027146284701302648,0.106482258066535,0.10980676580220461,-0.05977116897702217,-0.001137465238571167,-0.009255762910470366,0.11446456331759691,0.05860232748091221,-0.022772660478949547,0.04154941439628601,-0.19923184998333454,-0.13121886551380157,0.022630836814641953,0.02266581356525421,0.0027146284701302648,0.106482258066535,0.10980676580220461,-0.05977116897702217,-0.001137465238571167,-0.005931392379824388,0.09107209849215092,0.04365750228476878,-0.04448544284868339,0.027611654181941336,-0.2485048876374738,-0.16566992509164935,0.022280218732490198,0.055951437911199345,0.011112838596682599,0.11577941571569553,0.13055880928004437,-0.06098425843394257,0.09183431650142045
18.789089126999954,0.0,0.0,-0.3490658503988659,-0.10799224746714914,-0.6381360077604268,-0.09491757922424648,-0.027556716548974788,-0.9951036531574228,1.0,0.0,0.0,-0.0,0.07671776931843206,0.07671776931843206,0.15343553863686413,-0.0,0.07671776931843206,-0.07671776931843206,-0.15343553863686413,-0.15343553863686413,-0.2301533079552962,0.07671776931843206,-0.2301533079552962,-0.3835888465921603,-0.04007766395807266,0.0018176808953285217,0.21473874151706696,0.10477383434772491,0.4161822199821472,0.005061119794845581,0.024763405323028564,0.07700376212596893,0.10605639219284058,-0.0062353783287107944,-0.057052385061979294,0.5021129250526428,-0.10426723957061768,0.19548830389976501,-0.00757595500908792,0.12262746877968311,0.06206226535141468,-0.013076450675725937,0.048195019364356995,-0.20660343021154404,-0.1357044130563736,0.019250940531492233,0.026514098048210144,0.002629945403896272,0.10790995229035616,0.13722193706780672,-0.06533671915531158,-0.006978459656238556,-0.00757595500908792,0.12262746877968311,0.06206226535141468,-0.013076450675725937,0.048195019364356995,-0.20660343021154404,-0.1357044130563736,0.019250940531492233,0.026514098048210144,0.002629945403896272,0.10790995229035616,0.13722193706780672,-0.06533671915531158,-0.006978459656238556,-0.005931392379824388,0.09107209849215092,0.04519148307265458,-0.04448544284868339,0.03067961575771294,-0.24697090684958845,-0.16413594430376355,0.019212257156719037,0.052883476335428184,0.011112838596682599,0.1096434925641532,0.13055880928004437,-0.06558620079759953,0.08109645098622072
18.809282889999963,0.0,0.0,-0.3665191429188092,-0.18544123302439752,-0.44505895925855404,-0.09796520212877496,-0.021429887965669525,-0.9949590841203708,1.0,0.0,0.0,-0.0,0.07671776931843206,-0.0,0.07671776931843206,0.15343553863686413,0.15343553863686413,-0.15343553863686413,-0.15343553863686413,-0.0,-0.15343553863686413,-0.07671776931843206,-0.15343553863686413,-0.6904599238658886,-0.04680565372109413,-0.0028218403458595276,0.22543832659721375,0.1247333213686943,0.44005870819091797,-0.004992559552192688,0.035966843366622925,0.06543702632188797,0.09175732731819153,-0.001358495093882084,-0.06728734821081161,0.5335904955863953,-0.17394062876701355,0.18661914765834808,-0.009257952449843287,0.1214675884693861,0.06473716162145138,-0.00808657892048359,0.05416414141654968,-0.2091168500483036,-0.132903553545475,0.016359256580471992,0.022939331829547882,0.00384916621260345,0.10535121150314808,0.14509132970124483,-0.08275506645441055,-0.009195748716592789,-0.009257952449843287,0.1214675884693861,0.06473716162145138,-0.00808657892048359,0.05416414141654968,-0.2091168500483036,-0.132903553545475,0.016359256580471992,0.022939331829547882,0.00384916621260345,0.10535121150314808,0.14509132970124483,-0.08275506645441055,-0.009195748716592789,-0.005931392379824388,0.09107209849215092,0.04519148307265458,-0.04448544284868339,0.0337475773334841,-0.24543692606170264,-0.1610679827279924,0.017678276368833234,0.04981551475965702,0.011112838596682599,0.1096434925641532,0.1274908477042732,-0.06865416237337069,0.06729062389525027
18.82923629999999,0.0,0.0,-0.3076142806640006,-0.07308566242726255,-0.49632800603588745,-0.09797464007589166,-0.016329106679315277,-0.9950549382707746,1.0,0.0,0.0,-0.0,-0.0,-0.0,0.07671776931843206,0.07671776931843206,0.07671776931843206,-0.07671776931843206,-0.07671776931843206,-0.0,0.0,-0.2301533079552962,-0.07671776931843206,-0.7671776931843206,-0.03946726769208908,0.00023014098405838013,0.19859135150909424,0.11867653578519821,0.4088844656944275,0.02203843742609024,0.05941285192966461,0.032848767936229706,0.06139278784394264,-0.001052049919962883,-0.0805162712931633,0.49011993408203125,-0.20145827531814575,0.23415544629096985,-0.007423355942592025,0.12223058380186558,0.0580254178494215,-0.009600775316357613,0.04637058079242706,-0.20235910080373287,-0.12704205140471458,0.008212191984057426,0.01534819696098566,0.00392577750608325,0.10204398073256016,0.13422368932515383,-0.0896344780921936,0.0026883259415626526,-0.007423355942592025,0.12223058380186558,0.0580254178494215,-0.009600775316357613,0.04637058079242706,-0.20235910080373287,-0.12704205140471458,0.008212191984057426,0.01534819696098566,0.00392577750608325,0.10204398073256016,0.13422368932515383,-0.0896344780921936,0.0026883259415626526,-0.005931392379824388,0.08953811770426512,0.04519148307265458,-0.04295146206079803,0.0337475773334841,-0.24390294527381684,-0.15800002115222123,0.017678276368833234,0.04828153397177122,0.011112838596682599,0.1096434925641532,0.12288890534061626,-0.06865416237337069,0.05348479680427938
18.849282228999982,0.0,0.0,-0.37960911230876665,0.11235557059713497,-0.4723297288209654,-0.09485322950428854,-0.0091793447907376,-0.9954489461955442,1.0,0.0,0.0,-0.07671776931843206,-0.0,0.07671776931843206,0.07671776931843206,0.07671776931843206,0.15343553863686413,0.0,0.0,-0.0,0.0,-0.2301533079552962,0.0,-0.6904599238658886,-0.03754502162337303,-0.01984838768839836,0.14724498987197876,0.09776434302330017,0.3332979083061218,0.037946395576000214,0.0734758973121643,0.03288967162370682,0.092328742146492,-0.012751168571412563,-0.051299046725034714,0.5023812651634216,-0.19965168833732605,0.30500197410583496,-0.0069427944254130125,0.11721095163375139,0.04518882744014263,-0.014828823506832123,0.027473941445350647,-0.19838211126625538,-0.12352629005908966,0.008222417905926704,0.023082185536623,0.00100099784322083,0.1093482868745923,0.13728902209550142,-0.08918283134698868,0.02039995789527893,-0.0069427944254130125,0.11721095163375139,0.04518882744014263,-0.014828823506832123,0.027473941445350647,-0.19838211126625538,-0.12352629005908966,0.008222417905926704,0.023082185536623,0.00100099784322083,0.1093482868745923,0.13728902209550142,-0.08918283134698868,0.02039995789527893,-0.004397411591939029,0.08953811770426512,0.04672546386053994,-0.04141748127291223,0.035281558121369905,-0.24236896448593148,-0.15646604036433542,0.017678276368833234,0.04828153397177122,0.011112838596682599,0.1096434925641532,0.11675298218907394,-0.06865416237337069,0.03967896971330849
18.869376009999996,0.0,0.0,-0.4821472058634335,0.22143864884678055,-0.39051742013373125,-0.09081174067240905,-0.0,-0.9958680774861935,1.0,0.0,0.07671776931843206,-0.0,0.07671776931843206,0.07671776931843206,-0.0,-0.0,-0.0,0.0,0.0,-0.0,-0.07671776931843206,-0.4603066159105924,0.0,-0.6137421545474565,-0.03641664981842041,-0.007573071867227554,0.12675140798091888,0.0828133374452591,0.2670644521713257,0.03147821128368378,0.08447857201099396,0.042843446135520935,0.13888543844223022,-0.01778426207602024,-0.00985724851489067,0.5488527417182922,-0.22458678483963013,0.3421371877193451,-0.006660701474174857,0.1202797805890441,0.04006543196737766,-0.018566574901342392,0.010915577411651611,-0.1999991573393345,-0.12077562138438225,0.010710861533880234,0.034721359610557556,-0.0002572755329310894,0.11970873642712831,0.14890689123421907,-0.0954166054725647,0.029683761298656464,-0.006660701474174857,0.1202797805890441,0.04006543196737766,-0.018566574901342392,0.010915577411651611,-0.1999991573393345,-0.12077562138438225,0.010710861533880234,0.034721359610557556,-0.0002572755329310894,0.11970873642712831,0.14890689123421907,-0.0954166054725647,0.029683761298656464,-0.004397411591939029,0.08800413691637976,0.04825944464842574,-0.03681553890925526,0.035281558121369905,-0.24236896448593148,-0.15646604036433542,0.017678276368833234,0.04828153397177122,0.011112838596682599,0.1081095117762674,0.10754909746176002,-0.06865416237337069,0.027407123410223402
18.88938299399996,0.0,0.0,-0.4821472058634335,0.2879793265790644,-0.25089107997418486,-0.08464686946175458,0.007138892605208218,-0.9963854393269183,1.0,0.0,0.0,-0.07671776931843206,0.07671776931843206,0.2301533079552962,-0.0,0.07671776931843206,0.15343553863686413,0.0,-0.15343553863686413,-0.0,0.0,-0.30687107727372825,-0.07671776931843206,-0.5370243852290244,-0.04735575616359711,-0.007183995097875595,0.10241253674030304,0.09229518473148346,0.2503458857536316,0.02607864886522293,0.0986492931842804,0.052845753729343414,0.1300535351037979,-0.029385531321167946,0.0001500183716416359,0.5341930389404297,-0.25088781118392944,0.38509464263916016,-0.009395478060469031,0.12037704978138208,0.0339807141572237,-0.0161961130797863,0.006735935807228088,-0.2013490479439497,-0.11723294109106064,0.013211438432335854,0.03251338377594948,-0.0031575928442180157,0.12221055314876139,0.14524196553975344,-0.10199186205863953,0.04042312502861023,-0.009395478060469031,0.12037704978138208,0.0339807141572237,-0.0161961130797863,0.006735935807228088,-0.2013490479439497,-0.11723294109106064,0.013211438432335854,0.03251338377594948,-0.0031575928442180157,0.12221055314876139,0.14524196553975344,-0.10199186205863953,0.04042312502861023,-0.004397411591939029,0.08800413691637976,0.049793425436311545,-0.0322135965455983,0.035281558121369905,-0.24083498369804568,-0.15339807878856426,0.019212257156719037,0.04521357239600006,0.011112838596682599,0.1081095117762674,0.10448113588598885,-0.07172212394914185,0.019737219470795278
18.90952303499995,0.0,0.0,-0.43196898986859655,0.3043417883165112,-0.14726215563702155,-0.08261371639185605,0.015298836368862232,-0.9964642088252267,1.0,0.0,0.0,-0.0,0.30687107727372825,0.30687107727372825,-0.0,0.07671776931843206,0.2301533079552962,0.15343553863686413,-0.15343553863686413,-0.0,0.0,0.0,-0.07671776931843206,-0.3835888465921603,-0.051795341074466705,0.006251070648431778,0.10120038688182831,0.08942682296037674,0.21661686897277832,0.03166073560714722,0.10493098199367523,0.05058727413415909,0.1149986982345581,-0.03178209811449051,-0.0034972201101481915,0.5281434655189514,-0.25025680661201477,0.3981037139892578,-0.010505374288186431,0.12373581621795893,0.03367767669260502,-0.01691320352256298,-0.0016963183879852295,-0.19995352625846863,-0.11566251888871193,0.012646818533539772,0.028749674558639526,-0.0037567345425486565,0.12129874352831393,0.14372957218438387,-0.10183411091566086,0.043675392866134644,-0.010505374288186431,0.12373581621795893,0.03367767669260502,-0.01691320352256298,-0.0016963183879852295,-0.19995352625846863,-0.11566251888871193,0.012646818533539772,0.028749674558639526,-0.0037567345425486565,0.12129874352831393,0.14372957218438387,-0.10183411091566086,0.043675392866134644,-0.004397411591939029,0.08800413691637976,0.05592934858785387,-0.02914563496982714,0.035281558121369905,-0.23776702212227452,-0.1487961364249073,0.020746237944604395,0.0421456108202289,0.011112838596682599,0.1081095117762674,0.10448113588598885,-0.07018814316125649,0.015135277107138315
18.929572500999996,0.0,0.0,-0.5246896063807953,0.2378011105842274,-0.09381144729469522,-0.07854350495644236,0.025501137972870895,-0.9965844719797945,1.0,0.0,0.0,-0.0,0.07671776931843206,0.15343553863686413,-0.0,0.15343553863686413,0.2301533079552962,0.0,-0.07671776931843206,-0.0,0.0,0.07671776931843206,0.15343553863686413,-0.07671776931843206,-0.059517160058021545,-0.015729982405900955,0.11339230835437775,0.08665662258863449,0.2238103449344635,0.030467689037322998,0.12043203413486481,0.0796174481511116,0.13442683219909668,-0.021948188543319702,0.012530582025647163,0.5687721967697144,-0.26828819513320923,0.3609086871147156,-0.012435829034075141,0.11824055295437574,0.03672565706074238,-0.017605753615498543,0.00010205060243606567,-0.20025178790092468,-0.11178725585341454,0.0199043620377779,0.03360670804977417,-0.0012982571497559547,0.12530569406226277,0.1538867549970746,-0.10634195804595947,0.034376636147499084,-0.012435829034075141,0.11824055295437574,0.03672565706074238,-0.017605753615498543,0.00010205060243606567,-0.20025178790092468,-0.11178725585341454,0.0199043620377779,0.03360670804977417,-0.0012982571497559547,0.12530569406226277,0.1538867549970746,-0.10634195804595947,0.034376636147499084,-0.004397411591939029,0.08800413691637976,0.05746332937573967,-0.023009711818284817,0.035281558121369905,-0.2346990605465029,-0.14266021327336453,0.020746237944604395,0.040611630032343096,0.011112838596682599,0.1081095117762674,0.10908307824964582,-0.06712018158548488,0.012067315531367154
18.949559948,0.0,0.0,-0.6381360077604268,0.11235557059713497,0.020725784867432664,-0.07749963462483543,0.0377300852778804,-0.9962781977429501,1.0,1.0,0.0,-0.0,-0.0,0.2301533079552962,-0.0,0.15343553863686413,0.30687107727372825,0.0,-0.07671776931843206,-0.0,0.0,0.2301533079552962,0.07671776931843206,-0.07671776931843206,-0.0608067587018013,-0.0392378605902195,0.1418732851743698,0.0532698854804039,0.21162426471710205,0.03126269578933716,0.1476144790649414,0.08171867579221725,0.19195401668548584,0.00413784384727478,0.04912184551358223,0.6414880752563477,-0.3008788526058197,0.32136279344558716,-0.01275822869502008,0.11236358340829611,0.043845901265740395,-0.02595243789255619,-0.002944469451904297,-0.20005303621292114,-0.10499164462089539,0.020429668948054314,0.04798850417137146,0.005223250947892666,0.13445350993424654,0.17206572461873293,-0.11448962241411209,0.02449016273021698,-0.01275822869502008,0.11236358340829611,0.043845901265740395,-0.02595243789255619,-0.002944469451904297,-0.20005303621292114,-0.10499164462089539,0.020429668948054314,0.04798850417137146,0.005223250947892666,0.13445350993424654,0.17206572461873293,-0.11448962241411209,0.02449016273021698,-0.004397411591939029,0.08800413691637976,0.05746332937573967,-0.019941750242513212,0.035281558121369905,-0.23163109897073175,-0.1365242901218222,0.020746237944604395,0.039077649244457294,0.011112838596682599,0.1081095117762674,0.11215103982541698,-0.06712018158548488,0.012067315531367154
18.969639432999998,0.0,0.0,-0.35124751196385884,0.07090400086226964,0.20507618710933373,-0.0755331726784123,0.04287017908774751,-0.9962213045152756,1.0,1.0,0.0,-0.0,-0.07671776931843206,0.15343553863686413,-0.07671776931843206,0.15343553863686413,0.3835888465921603,0.0,-0.07671776931843206,-0.0,0.0,0.2301533079552962,-0.07671776931843206,0.0,-0.05976530909538269,0.013931140303611755,0.11380068957805634,0.05934615433216095,0.2138875275850296,0.03703247755765915,0.15412479639053345,0.0638260766863823,0.12653984129428864,-0.014915741980075836,-0.0007021795026957989,0.643857479095459,-0.25637587904930115,0.25781720876693726,-0.012497866293415427,0.12565583363175392,0.036827752366662025,-0.024433370679616928,-0.002378653734922409,-0.19861059077084064,-0.10336406528949738,0.015956519171595573,0.03163496032357216,0.00045985449105501175,0.12199750368017703,0.17265807557851076,-0.10336387902498245,0.008603766560554504,-0.012497866293415427,0.12565583363175392,0.036827752366662025,-0.024433370679616928,-0.002378653734922409,-0.19861059077084064,-0.10336406528949738,0.015956519171595573,0.03163496032357216,0.00045985449105501175,0.12199750368017703,0.17265807557851076,-0.10336387902498245,0.008603766560554504,-0.004397411591939029,0.08953811770426512,0.05592934858785387,-0.019941750242513212,0.0337475773334841,-0.2285631373949606,-0.13038836697027945,0.020746237944604395,0.037543668456571935,0.011112838596682599,0.1081095117762674,0.1182869629769593,-0.07018814316125649,0.012067315531367154
18.98969795399995,0.0,0.0,-0.19853120241435498,0.12980886311707826,0.2279836335417593,-0.07247063950666466,0.04797352192694704,-0.9962161149085171,1.0,1.0,0.0,0.07671776931843206,-0.0,-0.0,-0.07671776931843206,0.15343553863686413,0.15343553863686413,0.0,-0.07671776931843206,-0.0,0.0,0.5370243852290244,-0.15343553863686413,0.07671776931843206,-0.06190311908721924,-0.0038057267665863037,0.08687995374202728,0.04781331866979599,0.17962880432605743,0.07036088407039642,0.18595823645591736,0.05043518543243408,0.0709323137998581,-0.040310606360435486,-0.0345178097486496,0.5915722846984863,-0.21037575602531433,0.24288398027420044,-0.013032318791374564,0.1212216168642044,0.030097568407654762,-0.027316579595208168,-0.010943334549665451,-0.19027848914265633,-0.0954057052731514,0.01260879635810852,0.017733078449964523,-0.005888861604034901,0.11354359611868858,0.1595867769792676,-0.09186384826898575,0.0048704594373703,-0.013032318791374564,0.1212216168642044,0.030097568407654762,-0.027316579595208168,-0.010943334549665451,-0.19027848914265633,-0.0954057052731514,0.01260879635810852,0.017733078449964523,-0.005888861604034901,0.11354359611868858,0.1595867769792676,-0.09186384826898575,0.0048704594373703,-0.004397411591939029,0.08953811770426512,0.05592934858785387,-0.018407769454627854,0.03067961575771294,-0.22396119503130363,-0.12578642460662248,0.020746237944604395,0.03600968766868613,0.011112838596682599,0.1081095117762674,0.12902482849215902,-0.07479008552491345,0.016669257895024117
19.00975658699997,0.0,0.0,-0.33488505022641196,0.16471544815696484,0.1559888018969932,-0.06838226535554627,0.055114064614917885,-0.9961356863733306,1.0,1.0,0.0,-0.0,0.07671776931843206,0.07671776931843206,-0.2301533079552962,0.2301533079552962,0.30687107727372825,0.0,-0.07671776931843206,-0.0,0.0,0.3835888465921603,-0.2301533079552962,0.30687107727372825,-0.055554017424583435,-0.026372764259576797,0.09721735119819641,0.038906216621398926,0.15199989080429077,0.08296690136194229,0.20262989401817322,0.07387655228376389,0.10287800431251526,-0.05320921167731285,-0.008663017302751541,0.6384053230285645,-0.19842979311943054,0.22656172513961792,-0.011445043375715613,0.11557985749095678,0.032681917771697044,-0.029543355107307434,-0.017850562930107117,-0.18712698481976986,-0.09123779088258743,0.01846913807094097,0.025719501078128815,-0.009113512933254242,0.1200072942301631,0.17129503656178713,-0.0888773575425148,0.0007898956537246704,-0.011445043375715613,0.11557985749095678,0.032681917771697044,-0.029543355107307434,-0.017850562930107117,-0.18712698481976986,-0.09123779088258743,0.01846913807094097,0.025719501078128815,-0.009113512933254242,0.1200072942301631,0.17129503656178713,-0.0888773575425148,0.0007898956537246704,-0.004397411591939029,0.08953811770426512,0.05746332937573967,-0.018407769454627854,0.026077673394055978,-0.21935925266764666,-0.12118448224296552,0.020746237944604395,0.03447570688080033,0.011112838596682599,0.1081095117762674,0.13669473243158714,-0.07785804710068461,0.02280518104656644
19.029880367999965,0.0,0.0,-0.28907015736156083,0.26725354171163174,0.09708393964218458,-0.06328560505299151,0.05920266279150819,-0.9962379118019309,1.0,1.0,0.0,-0.0,-0.0,0.07671776931843206,-0.2301533079552962,0.2301533079552962,0.2301533079552962,0.0,0.0,-0.07671776931843206,0.0,0.30687107727372825,-0.15343553863686413,0.2301533079552962,-0.05551052838563919,-0.0028625205159187317,0.06636814773082733,0.026191696524620056,0.10531628131866455,0.10995887964963913,0.23093962669372559,0.0617796927690506,0.08425924181938171,-0.07013906538486481,-0.01403232291340828,0.6237536668777466,-0.19717064499855042,0.24012067914009094,-0.011434171115979552,0.1214574184268713,0.024969616904854774,-0.03272198513150215,-0.029521465301513672,-0.18037899024784565,-0.08416035771369934,0.01544492319226265,0.02106481045484543,-0.013345976360142231,0.11866496782749891,0.16763212252408266,-0.08856257051229477,0.004179634153842926,-0.011434171115979552,0.1214574184268713,0.024969616904854774,-0.03272198513150215,-0.029521465301513672,-0.18037899024784565,-0.08416035771369934,0.01544492319226265,0.02106481045484543,-0.013345976360142231,0.11866496782749891,0.16763212252408266,-0.08856257051229477,0.004179634153842926,-0.004397411591939029,0.08953811770426512,0.05746332937573967,-0.01687378866674205,0.021475731030399015,-0.2147573103039897,-0.1150485590914232,0.020746237944604395,0.03447570688080033,0.009578857808796797,0.1081095117762674,0.1428306555831299,-0.08245998946434158,0.0258731426223376
19.04987435299995,0.0,0.0,-0.04908738521234052,0.2476185876266955,0.07853981633974483,-0.05915368539718525,0.06017357652472293,-0.9964336316043102,1.0,1.0,0.0,-0.0,0.07671776931843206,-0.0,-0.2301533079552962,0.4603066159105924,0.2301533079552962,0.0,-0.15343553863686413,-0.0,0.0,0.30687107727372825,-0.2301533079552962,0.07671776931843206,-0.058392830193042755,-0.011095941066741943,0.07920099794864655,0.023792587220668793,0.10284413397312164,0.13538503646850586,0.2562902271747589,0.03241283446550369,0.015212275087833405,-0.08227512240409851,-0.05651303753256798,0.5208178758621216,-0.166287362575531,0.21370144188404083,-0.012154746567830443,0.1193990632891655,0.028177829459309578,-0.03332176245748997,-0.0301395021378994,-0.17402245104312897,-0.07782270759344101,0.008103208616375923,0.003803068771958351,-0.016379990614950657,0.10804478917270899,0.1418981747701764,-0.08084174990653992,-0.0024251751601696014,-0.012154746567830443,0.1193990632891655,0.028177829459309578,-0.03332176245748997,-0.0301395021378994,-0.17402245104312897,-0.07782270759344101,0.008103208616375923,0.003803068771958351,-0.016379990614950657,0.10804478917270899,0.1418981747701764,-0.08084174990653992,-0.0024251751601696014,-0.004397411591939029,0.08953811770426512,0.05899731016362503,-0.01687378866674205,0.018407769454627854,-0.20555342557667577,-0.11044661672776623,0.020746237944604395,0.03140774530502917,0.008044877020911438,0.1081095117762674,0.14896657873467223,-0.08399397025222693,0.027407123410223402
19.06994146699998,0.0,0.0,-0.014180800172453928,0.17671458676442586,0.026179938779914945,-0.05610043136909534,0.061200470584467634,-0.996547662683748,1.0,1.0,0.0,-0.0,-0.0,-0.0,-0.2301533079552962,0.2301533079552962,0.30687107727372825,0.0,0.0,-0.15343553863686413,0.0,0.2301533079552962,-0.07671776931843206,0.07671776931843206,-0.05231636390089989,-0.03791012987494469,0.08882035315036774,0.011544287204742432,0.09919895231723785,0.16748395562171936,0.26873794198036194,0.02515101246535778,-0.016464080661535263,-0.0943891853094101,-0.07479605078697205,0.42550933361053467,-0.11121898889541626,0.20805418491363525,-0.010635629994794726,0.11269551608711481,0.030582668259739876,-0.03638383746147156,-0.031050797551870346,-0.1659977212548256,-0.07471077889204025,0.006287753116339445,-0.004116020165383816,-0.019408506341278553,0.10347403585910797,0.11807103920727968,-0.06707465648651123,-0.003836989402770996,-0.010635629994794726,0.11269551608711481,0.030582668259739876,-0.03638383746147156,-0.031050797551870346,-0.1659977212548256,-0.07471077889204025,0.006287753116339445,-0.004116020165383816,-0.019408506341278553,0.10347403585910797,0.11807103920727968,-0.06707465648651123,-0.003836989402770996,-0.004397411591939029,0.08953811770426512,0.05899731016362503,-0.015339807878856249,0.01380582709097089,-0.2009514832130188,-0.10431069357622347,0.020746237944604395,0.03140774530502917,0.0034429346572544747,0.1081095117762674,0.1520345403104434,-0.08552795104011274,0.027407123410223402
19.090045395999994,0.0,0.0,-0.1341721862470641,0.10035643198967395,-0.05672320068981571,-0.05405962826565029,0.06323956514094939,-0.9965331474630251,1.0,1.0,0.0,-0.0,-0.0,0.07671776931843206,-0.15343553863686413,0.30687107727372825,0.30687107727372825,0.0,-0.07671776931843206,-0.2301533079552962,-0.07671776931843206,0.07671776931843206,0.0,0.0,-0.046756990253925323,-0.039937812834978104,0.0927419662475586,0.021301276981830597,0.10331873595714569,0.1842145025730133,0.2751038670539856,0.023802882060408592,-0.0011301245540380478,-0.1152663454413414,-0.06865755468606949,0.4476025700569153,-0.08299708366394043,0.1922084391117096,-0.009245786583051085,0.11218859534710646,0.03156307153403759,-0.033944590017199516,-0.030020851641893387,-0.1618150845170021,-0.07311929762363434,0.005950720515102148,-0.00028253113850951195,-0.02462779637426138,0.10500865988433361,0.12359434831887484,-0.06001918017864227,-0.007798425853252411,-0.009245786583051085,0.11218859534710646,0.03156307153403759,-0.033944590017199516,-0.030020851641893387,-0.1618150845170021,-0.07311929762363434,0.005950720515102148,-0.00028253113850951195,-0.02462779637426138,0.10500865988433361,0.12359434831887484,-0.06001918017864227,-0.007798425853252411,-0.004397411591939029,0.09107209849215092,0.05899731016362503,-0.015339807878856249,0.010737865515199285,-0.1948155600614765,-0.09817477042468115,0.020746237944604395,0.029873764517143367,0.0003749730814833138,0.10657553098838204,0.1520345403104434,-0.08552795104011274,0.027407123410223402
19.110078250999948,0.0,0.0,-0.038179077387375956,0.08399397025222712,-0.09053895494720585,-0.05304253255495918,0.06324301958475902,-0.9965875828114446,1.0,1.0,0.0,-0.0,-0.0,-0.0,-0.15343553863686413,0.2301533079552962,0.30687107727372825,0.0,-0.07671776931843206,-0.15343553863686413,0.0,0.0,0.0,0.0,-0.040997136384248734,-0.035578999668359756,0.10713504254817963,0.020286627113819122,0.09971506148576736,0.19926881790161133,0.291495144367218,0.003666689619421959,-0.0299389511346817,-0.12212046980857849,-0.08521399646997452,0.38642290234565735,-0.06501337885856628,0.17968952655792236,-0.007805823115631938,0.11327829863876104,0.03516134060919285,-0.034198252484202385,-0.03092177025973797,-0.1580515056848526,-0.06902147829532623,0.0009166724048554897,-0.007484737783670425,-0.026341327466070652,0.10086954943835735,0.10829943139106035,-0.05552325397729874,-0.010928153991699219,-0.007805823115631938,0.11327829863876104,0.03516134060919285,-0.034198252484202385,-0.03092177025973797,-0.1580515056848526,-0.06902147829532623,0.0009166724048554897,-0.007484737783670425,-0.026341327466070652,0.10086954943835735,0.10829943139106035,-0.05552325397729874,-0.010928153991699219,-0.004397411591939029,0.09260607928003672,0.05899731016362503,-0.015339807878856249,0.007669903939428124,-0.19174759848570533,-0.09203884727313838,0.020746237944604395,0.02833978372925801,-0.00422696928217365,0.10504155020049624,0.1535685210983292,-0.08552795104011274,0.027407123410223402
19.13036606899999,0.0,0.0,-0.038179077387375956,0.06981317007977318,-0.11453723216212788,-0.0510045314642746,0.064265709644986,-0.9966285448119256,1.0,1.0,0.0,0.07671776931843206,-0.0,-0.0,-0.07671776931843206,0.15343553863686413,0.30687107727372825,0.0,-0.07671776931843206,-0.2301533079552962,-0.07671776931843206,0.07671776931843206,0.0,0.0,-0.04256989061832428,-0.050362396985292435,0.11232154071331024,0.021339260041713715,0.11062774062156677,0.20790129899978638,0.29212647676467896,0.0006725732237100601,-0.034449342638254166,-0.13010185956954956,-0.0865309089422226,0.34799709916114807,-0.038130566477775574,0.17882251739501953,-0.008199011674150825,0.10958244930952787,0.0364579651504755,-0.03393509425222874,-0.028193600475788116,-0.15589338541030884,-0.068863645195961,0.00016814330592751503,-0.008612335659563541,-0.02833667490631342,0.10054032132029533,0.09869298059493303,-0.04880255088210106,-0.011144906282424927,-0.008199011674150825,0.10958244930952787,0.0364579651504755,-0.03393509425222874,-0.028193600475788116,-0.15589338541030884,-0.068863645195961,0.00016814330592751503,-0.008612335659563541,-0.02833667490631342,0.10054032132029533,0.09869298059493303,-0.04880255088210106,-0.011144906282424927,-0.004397411591939029,0.09414006006792208,0.05899731016362503,-0.015339807878856249,0.006135923151542766,-0.19021361769781953,-0.08743690490948142,0.020746237944604395,0.026805802941372206,-0.007294930857945255,0.10504155020049624,0.1535685210983292,-0.08552795104011274,0.0258731426223376
19.150288775999968,0.0,0.0,-0.08399397025222712,0.04799655442984406,-0.12544553998709243,-0.04998371266814565,0.06528484919921064,-0.9966140260566999,1.0,1.0,0.0,-0.0,-0.0,-0.0,-0.0,0.07671776931843206,0.15343553863686413,0.0,-0.07671776931843206,-0.15343553863686413,0.0,0.0,0.07671776931843206,-0.07671776931843206,-0.04263094440102577,-0.05230915918946266,0.11226004362106323,0.01859039068222046,0.114399254322052,0.22305205464363098,0.30123525857925415,0.0029651354998350143,-0.03234466537833214,-0.1444922536611557,-0.08789292722940445,0.3457474410533905,-0.018531769514083862,0.15996165573596954,-0.008214275119826198,0.10909575875848532,0.03644259087741375,-0.03462231159210205,-0.02725072205066681,-0.1521056964993477,-0.0665864497423172,0.0007412838749587536,-0.008086166344583035,-0.031934273429214954,0.10019981674849987,0.09813056606799364,-0.04390285164117813,-0.015860121697187424,-0.008214275119826198,0.10909575875848532,0.03644259087741375,-0.03462231159210205,-0.02725072205066681,-0.1521056964993477,-0.0665864497423172,0.0007412838749587536,-0.008086166344583035,-0.031934273429214954,0.10019981674849987,0.09813056606799364,-0.04390285164117813,-0.015860121697187424,-0.004397411591939029,0.09414006006792208,0.05899731016362503,-0.015339807878856249,0.006135923151542766,-0.18561167533416256,-0.08283496254582445,0.020746237944604395,0.025271822153486848,-0.011896873221601774,0.10504155020049624,0.1535685210983292,-0.08092600867645577,0.02433916183445224
19.170273278999957,0.0,0.0,-0.02399827721492203,0.031634092692397225,-0.17235126363444003,-0.048966108129294694,0.06528814417239293,-0.9966643258816857,1.0,1.0,0.0,-0.0,-0.0,-0.0,-0.0,0.15343553863686413,0.2301533079552962,0.0,-0.2301533079552962,-0.2301533079552962,0.0,-0.15343553863686413,0.15343553863686413,-0.07671776931843206,-0.03947763890028,-0.05175863578915596,0.13161543011665344,0.027187548577785492,0.13562393188476562,0.22722172737121582,0.2966862916946411,-0.011702898889780045,-0.04193256050348282,-0.14210139214992523,-0.0840936228632927,0.3070926070213318,-0.006601601839065552,0.16902025043964386,-0.007425948744639754,0.10923338960856199,0.0412814375013113,-0.03247302211821079,-0.021944552659988403,-0.15106327831745148,-0.06772369146347046,-0.002925724722445011,-0.010483140125870705,-0.03133655805140734,0.10114964284002781,0.08846685755997896,-0.04092030972242355,-0.013595473021268845,-0.007425948744639754,0.10923338960856199,0.0412814375013113,-0.03247302211821079,-0.021944552659988403,-0.15106327831745148,-0.06772369146347046,-0.002925724722445011,-0.010483140125870705,-0.03133655805140734,0.10114964284002781,0.08846685755997896,-0.04092030972242355,-0.013595473021268845,-0.004397411591939029,0.09414006006792208,0.05899731016362503,-0.015339807878856249,0.006135923151542766,-0.1825437137583914,-0.07976700097005329,0.020746237944604395,0.020669879789829884,-0.014964834797373379,0.10504155020049624,0.14743259794678643,-0.07785804710068461,0.02280518104656644
19.190392429999974,0.0,0.0,0.008726646259971648,0.016362461737446838,-0.22362031041177347,-0.04896934422281202,0.06427226429244078,-0.9967301938684863,1.0,1.0,0.0,-0.0,-0.0,-0.0,-0.0,0.2301533079552962,0.15343553863686413,-0.07671776931843206,-0.2301533079552962,-0.15343553863686413,0.0,-0.3835888465921603,0.30687107727372825,-0.15343553863686413,-0.036363765597343445,-0.054315004497766495,0.13963893055915833,0.020097099244594574,0.1403442621231079,0.23273757100105286,0.2946961522102356,-0.02682914212346077,-0.043081462383270264,-0.13590383529663086,-0.08186893165111542,0.2506521940231323,0.022349879145622253,0.16861769556999207,-0.006647480418905616,0.10859429743140936,0.04328731261193752,-0.03424563445150852,-0.020764470100402832,-0.14968431740999222,-0.06822122633457184,-0.006707285530865192,-0.010770365595817566,-0.029787168838083744,0.10170581564307213,0.0743567543104291,-0.0336824394762516,-0.013696111738681793,-0.006647480418905616,0.10859429743140936,0.04328731261193752,-0.03424563445150852,-0.020764470100402832,-0.14968431740999222,-0.06822122633457184,-0.006707285530865192,-0.010770365595817566,-0.029787168838083744,0.10170581564307213,0.0743567543104291,-0.0336824394762516,-0.013696111738681793,-0.004397411591939029,0.09414006006792208,0.05899731016362503,-0.015339807878856249,0.006135923151542766,-0.1794757521826198,-0.07669903939428213,0.019212257156719037,0.01606793742617292,-0.01803279637314454,0.10350756941261044,0.1397626940073583,-0.07172212394914185,0.019737219470795278
19.21048415599995,0.0,0.0,0.05781403147231216,-0.017453292519943295,-0.22143864884678055,-0.04999026731562827,0.06325299129732556,-0.9967447177014044,1.0,1.0,0.0,-0.0,-0.0,-0.0,-0.0,0.15343553863686413,0.07671776931843206,-0.07671776931843206,-0.2301533079552962,-0.15343553863686413,-0.15343553863686413,-0.3835888465921603,0.30687107727372825,-0.15343553863686413,-0.034293610602617264,-0.056403931230306625,0.1555154174566269,0.015664368867874146,0.15782438218593597,0.2369079291820526,0.2832445800304413,-0.039712563157081604,-0.03789905831217766,-0.1237763985991478,-0.07532703876495361,0.19965235888957977,0.05624464899301529,0.17121940851211548,-0.0061299416702240705,0.10807206574827433,0.047256434336304665,-0.03535381704568863,-0.016394440084695816,-0.14864172786474228,-0.07108411937952042,-0.009928140789270401,-0.009474764578044415,-0.02675530966371298,0.10334128886461258,0.06160679552704096,-0.025208747014403343,-0.01304568350315094,-0.0061299416702240705,0.10807206574827433,0.047256434336304665,-0.03535381704568863,-0.016394440084695816,-0.14864172786474228,-0.07108411937952042,-0.009928140789270401,-0.009474764578044415,-0.02675530966371298,0.10334128886461258,0.06160679552704096,-0.025208747014403343,-0.01304568350315094,-0.004397411591939029,0.09414006006792208,0.05899731016362503,-0.015339807878856249,0.006135923151542766,-0.17640779060684864,-0.07363107781851097,0.016144295580947432,0.011465995062515957,-0.019566777161030342,0.10043960783683928,0.13209279006793018,-0.06558620079759953,0.015135277107138315
19.230483435999986,0.0,0.0,0.07090400086226964,-0.02399827721492203,-0.14180800172453928,-0.05101432653869594,0.06121719184643513,-0.9968199405661186,1.0,1.0,0.0,-0.0,-0.0,-0.0,-0.0,0.15343553863686413,0.07671776931843206,-0.15343553863686413,-0.15343553863686413,-0.07671776931843206,-0.07671776931843206,-0.30687107727372825,0.30687107727372825,-0.15343553863686413,-0.03874743729829788,-0.05821213498711586,0.16440372169017792,0.011914260685443878,0.17783395946025848,0.2420012354850769,0.2805071473121643,-0.039139993488788605,-0.03650553897023201,-0.12042296677827835,-0.0672205239534378,0.17912767827510834,0.0740591362118721,0.1684473752975464,-0.007243398344144225,0.10762001480907202,0.04947851039469242,-0.036291344091296196,-0.011392045766115189,-0.1473684012889862,-0.07176847755908966,-0.009784998372197151,-0.009126384742558002,-0.025916951708495617,0.10536791756749153,0.0564756253734231,-0.02075512520968914,-0.013738691806793213,-0.007243398344144225,0.10762001480907202,0.04947851039469242,-0.036291344091296196,-0.011392045766115189,-0.1473684012889862,-0.07176847755908966,-0.009784998372197151,-0.009126384742558002,-0.025916951708495617,0.10536791756749153,0.0564756253734231,-0.02075512520968914,-0.013738691806793213,-0.004397411591939029,0.09414006006792208,0.05899731016362503,-0.015339807878856249,0.006135923151542766,-0.17333982903107747,-0.07209709703062517,0.013076334005176271,0.008398033486744796,-0.0211007579489157,0.10043960783683928,0.12595686691638786,-0.059450277646056766,0.013601296319252512
19.250579809999977,0.0,0.0,0.09926560120717749,-0.019634954084936207,-0.0719948316447661,-0.051020594098713797,0.05918388915450801,-0.9969424086888676,1.0,1.0,0.0,-0.0,-0.0,-0.0,-0.0,0.15343553863686413,0.15343553863686413,-0.15343553863686413,-0.15343553863686413,-0.0,0.0,-0.4603066159105924,0.2301533079552962,-0.07671776931843206,-0.03638575226068497,-0.052292462438344955,0.16647343337535858,0.005239814519882202,0.18325471878051758,0.2497192621231079,0.27490732073783875,-0.05160537362098694,-0.033631883561611176,-0.11314326524734497,-0.05715389922261238,0.158724844455719,0.08868046849966049,0.16308875381946564,-0.006652977084740996,0.10909993294626474,0.04999593831598759,-0.037959955632686615,-0.010036855936050415,-0.14543889462947845,-0.07316843420267105,-0.012901343405246735,-0.008407970890402794,-0.024097026325762272,0.10788457375019789,0.051374916918575764,-0.017099792137742043,-0.0150783471763134,-0.006652977084740996,0.10909993294626474,0.04999593831598759,-0.037959955632686615,-0.010036855936050415,-0.14543889462947845,-0.07316843420267105,-0.012901343405246735,-0.008407970890402794,-0.024097026325762272,0.10788457375019789,0.051374916918575764,-0.017099792137742043,-0.0150783471763134,-0.004397411591939029,0.09414006006792208,0.05899731016362503,-0.015339807878856249,0.006135923151542766,-0.1702718674553063,-0.07056311624273937,0.01000837242940511,0.0053300719109731914,-0.0211007579489157,0.10043960783683928,0.11675298218907394,-0.0548483352823998,0.012067315531367154
19.270662460999972,0.0,0.0,0.12217304763960307,-0.019634954084936207,-0.019634954084936207,-0.05102665139353494,0.057149849560759136,-0.9970607682296727,1.0,1.0,0.0,-0.0,-0.0,-0.0,-0.0,0.15343553863686413,-0.0,-0.15343553863686413,-0.07671776931843206,-0.0,0.0,-0.3835888465921603,0.2301533079552962,-0.07671776931843206,-0.039280474185943604,-0.052508849650621414,0.16381454467773438,0.00019219517707824707,0.18524229526519775,0.25397980213165283,0.26997774839401245,-0.05774255841970444,-0.032637450844049454,-0.10615072399377823,-0.05092160031199455,0.13531090319156647,0.10274145007133484,0.1624784767627716,-0.0073766575660556555,0.10904583614319563,0.049331216141581535,-0.039221860468387604,-0.009539961814880371,-0.14437375962734222,-0.07440082728862762,-0.01443563960492611,-0.008159362711012363,-0.022348891012370586,0.10944264847785234,0.04552143160253763,-0.013584546744823456,-0.015230916440486908,-0.0073766575660556555,0.10904583614319563,0.049331216141581535,-0.039221860468387604,-0.009539961814880371,-0.14437375962734222,-0.07440082728862762,-0.01443563960492611,-0.008159362711012363,-0.022348891012370586,0.10944264847785234,0.04552143160253763,-0.013584546744823456,-0.015230916440486908,-0.004397411591939029,0.09414006006792208,0.05899731016362503,-0.015339807878856249,0.006135923151542766,-0.1687378866674205,-0.07056311624273937,0.006940410853633505,0.003796091123087833,-0.0211007579489157,0.10043960783683928,0.10754909746176002,-0.04871241213085748,0.010533334743481351
19.290687667999975,0.0,0.0,0.12544553998709243,-0.014180800172453928,0.039269908169872414,-0.052050410008007586,0.05511219883200803,-0.9971225603494785,1.0,1.0,0.0,-0.0,-0.0,-0.0,-0.0,0.07671776931843206,-0.0,-0.07671776931843206,-0.07671776931843206,-0.0,0.0,-0.4603066159105924,0.30687107727372825,-0.07671776931843206,-0.04282425343990326,-0.04950302466750145,0.16285821795463562,0.0030306801199913025,0.19322392344474792,0.2572798430919647,0.26895296573638916,-0.05929683893918991,-0.03195800632238388,-0.10382481664419174,-0.04328439384698868,0.12330017983913422,0.10954128950834274,0.16715183854103088,-0.00826260237954557,0.10979729238897562,0.04909213446080685,-0.03851223923265934,-0.007544554769992828,-0.14354874938726425,-0.07465702295303345,-0.014824209734797478,-0.00798950158059597,-0.021767414174973965,0.11135195009410381,0.04251875076442957,-0.01188458688557148,-0.014062575995922089,-0.00826260237954557,0.10979729238897562,0.04909213446080685,-0.03851223923265934,-0.007544554769992828,-0.14354874938726425,-0.07465702295303345,-0.014824209734797478,-0.00798950158059597,-0.021767414174973965,0.11135195009410381,0.04251875076442957,-0.01188458688557148,-0.014062575995922089,-0.004397411591939029,0.09414006006792208,0.05899731016362503,-0.015339807878856249,0.006135923151542766,-0.16566992509164935,-0.07056311624273937,0.005406430065748147,0.0022621103352020305,-0.0211007579489157,0.10043960783683928,0.09834521273444609,-0.04104250819142936,0.008999353955595549
19.31073368899996,0.0,0.0,0.08944812416470939,-0.02181661564992912,0.009817477042468103,-0.052056157917373655,0.05307686689614569,-0.9972326722602757,1.0,1.0,0.0,-0.0,-0.0,-0.0,-0.0,0.07671776931843206,-0.0,-0.15343553863686413,0.0,-0.0,0.0,-0.3835888465921603,0.3835888465921603,-0.15343553863686413,-0.05049832910299301,-0.04787716642022133,0.15981075167655945,0.010835282504558563,0.1942337602376938,0.25691086053848267,0.270346999168396,-0.06987950205802917,-0.032475028187036514,-0.10391782224178314,-0.041764408349990845,0.11533737182617188,0.11427567899227142,0.17687681317329407,-0.010181121295318007,0.11020375695079565,0.048330267891287804,-0.036561088636517525,-0.007292095571756363,-0.14364099502563477,-0.07430851459503174,-0.017469875514507294,-0.008118757046759129,-0.021790665574371815,0.11173194646835327,0.040528048761188984,-0.01070098951458931,-0.011631332337856293,-0.010181121295318007,0.11020375695079565,0.048330267891287804,-0.036561088636517525,-0.007292095571756363,-0.14364099502563477,-0.07430851459503174,-0.017469875514507294,-0.008118757046759129,-0.021790665574371815,0.11173194646835327,0.040528048761188984,-0.01070098951458931,-0.011631332337856293,-0.005931392379824388,0.09414006006792208,0.05899731016362503,-0.015339807878856249,0.006135923151542766,-0.16413594430376355,-0.07056311624273937,0.002338468489976986,0.0022621103352020305,-0.019566777161030342,0.10043960783683928,0.09067530879501796,-0.03644056582777239,0.00746537316771019
19.330861081999956,0.0,0.0,0.10471975511965978,-0.0272707695624114,0.04799655442984406,-0.053079659663782856,0.0510381342920989,-0.9972851440676125,1.0,1.0,-0.07671776931843206,-0.0,-0.0,-0.0,-0.0,0.07671776931843206,-0.0,-0.15343553863686413,0.0,0.15343553863686413,0.0,-0.3835888465921603,0.2301533079552962,-0.07671776931843206,-0.051778752356767654,-0.04479708895087242,0.16109523177146912,0.014841102063655853,0.19575810432434082,0.2554831802845001,0.27181822061538696,-0.08034560084342957,-0.02843518555164337,-0.09781833738088608,-0.03610186278820038,0.1073153018951416,0.1175377368927002,0.17739301919937134,-0.010501227108761668,0.11097377631813288,0.04865138791501522,-0.0355596337467432,-0.0069110095500946045,-0.1439979150891304,-0.073940709233284,-0.02008640021085739,-0.007108796387910843,-0.02026579435914755,0.11314758285880089,0.038522531278431416,-0.009885475039482117,-0.011502280831336975,-0.010501227108761668,0.11097377631813288,0.04865138791501522,-0.0355596337467432,-0.0069110095500946045,-0.1439979150891304,-0.073940709233284,-0.02008640021085739,-0.007108796387910843,-0.02026579435914755,0.11314758285880089,0.038522531278431416,-0.009885475039482117,-0.011502280831336975,-0.00746537316771019,0.09414006006792208,0.05899731016362503,-0.015339807878856249,0.006135923151542766,-0.16413594430376355,-0.07056311624273937,0.0008044877020911834,0.0022621103352020305,-0.01803279637314454,0.10043960783683928,0.08300540485558984,-0.030304642676229628,0.005931392379824388
19.350872955,0.0,0.0,0.1505346479845109,-0.020725784867432664,0.09490227807719166,-0.05226690294521648,0.17589823106563238,-0.9830198284696482,1.0,1.0,-0.07671776931843206,-0.0,-0.0,-0.0,-0.0,-0.0,-0.0,0.0,0.07671776931843206,-0.0,0.0,-0.3835888465921603,0.30687107727372825,0.0,-0.07225388288497925,-0.12805308401584625,0.17613890767097473,-0.01936258375644684,0.19100652635097504,0.2664429843425751,0.26501548290252686,-0.11758296936750412,-0.05040445178747177,-0.1466645449399948,-0.1139451339840889,0.04985447973012924,0.16741539537906647,0.21830801665782928,-0.015620009740814567,0.09015977755188942,0.052412306889891624,-0.044110555201768875,-0.00809890404343605,-0.14125796407461166,-0.07564139366149902,-0.02939574234187603,-0.012601112946867943,-0.03247734624892473,0.09368676505982876,0.024157325737178326,0.0025839395821094513,-0.0012735314667224884,-0.015620009740814567,0.09015977755188942,0.052412306889891624,-0.044110555201768875,-0.00809890404343605,-0.14125796407461166,-0.07564139366149902,-0.02939574234187603,-0.012601112946867943,-0.03247734624892473,0.09368676505982876,0.024157325737178326,0.0,-0.0012735314667224884,-0.00746537316771019,0.09414006006792208,0.05899731016362503,-0.015339807878856249,0.006135923151542766,-0.16413594430376355,-0.07056311624273937,-0.0007294930857946191,0.003796091123087833,-0.01803279637314454,0.10043960783683928,0.07686948170404707,-0.027236681100458467,0.004397411591939029
19.370983513999988,0.0,0.0,0.12217304763960307,-0.019634954084936207,0.09490227807719166,-0.05303877998419115,0.0458989442170885,-0.9975370543180565,1.0,1.0,0.0,-0.0,-0.07671776931843206,-0.0,-0.0,-0.0,-0.0,-0.07671776931843206,0.0,-0.0,0.0,-0.30687107727372825,0.15343553863686413,-0.07671776931843206,-0.04910184442996979,-0.046969976276159286,0.15966559946537018,0.009711384773254395,0.20464473962783813,0.26120123267173767,0.267485111951828,-0.071051687002182,-0.024606842547655106,-0.09896120429039001,-0.03366897627711296,0.08965185284614563,0.1423768252134323,0.16147233545780182,-0.009832000127062201,0.11043055448681116,0.048293979838490486,-0.03684206306934357,-0.004689350724220276,-0.14256840199232101,-0.07502398639917374,-0.0177629217505455,-0.006151710636913776,-0.020551511086523533,0.11375580448657274,0.03410666901618242,-0.0036757029592990875,-0.015482451766729355,-0.009832000127062201,0.11043055448681116,0.048293979838490486,-0.03684206306934357,-0.004689350724220276,-0.14256840199232101,-0.07502398639917374,-0.0177629217505455,-0.006151710636913776,-0.020551511086523533,0.11375580448657274,0.03410666901618242,-0.0036757029592990875,-0.015482451766729355,-0.00746537316771019,0.09414006006792208,0.05746332937573967,-0.015339807878856249,0.006135923151542766,-0.16413594430376355,-0.07056311624273937,-0.0022634738736799775,0.003796091123087833,-0.01803279637314454,0.10043960783683928,0.07073355855250475,-0.022634738736801503,0.004397411591939029
19.391059868999946,0.0,0.0,0.11235557059713497,-0.006544984694978736,0.018544123302439753,-0.05406075315803508,0.04386061105274544,-0.9975738978973265,1.0,1.0,-0.07671776931843206,-0.0,-0.0,-0.0,-0.0,-0.0,-0.0,-0.15343553863686413,0.0,0.07671776931843206,0.0,-0.2301533079552962,0.15343553863686413,0.0,-0.05512763559818268,-0.04535038396716118,0.15482831001281738,0.019556336104869843,0.20820918679237366,0.25139328837394714,0.27464163303375244,-0.08780813217163086,-0.018109474331140518,-0.08855683356523514,-0.02754422277212143,0.07955562323331833,0.132237508893013,0.1825132966041565,-0.011338447919115424,0.11083545256406069,0.04708465747535229,-0.034380825236439705,-0.0037982389330863953,-0.14502038806676865,-0.07323485612869263,-0.021952033042907715,-0.0045273685827851295,-0.017950418405234814,0.11528699286282063,0.0315826116129756,-0.006210532039403915,-0.010222211480140686,-0.011338447919115424,0.11083545256406069,0.04708465747535229,-0.034380825236439705,-0.0037982389330863953,-0.14502038806676865,-0.07323485612869263,-0.021952033042907715,-0.0045273685827851295,-0.017950418405234814,0.11528699286282063,0.0315826116129756,-0.006210532039403915,-0.010222211480140686,-0.008999353955595549,0.09414006006792208,0.05746332937573967,-0.015339807878856249,0.006135923151542766,-0.16413594430376355,-0.07056311624273937,-0.0053314354494515825,0.0053300719109731914,-0.016498815585258737,0.10043960783683928,0.06613161618884779,-0.0211007579489157,0.002863430804053227
19.41108240899996,0.0,0.0,0.11671889372712078,-0.011999138607461015,0.04363323129985824,-0.05406547847298712,0.0418242380640089,-0.9976610933317245,1.0,1.0,0.0,-0.0,-0.0,-0.0,-0.0,-0.0,-0.0,-0.07671776931843206,0.07671776931843206,-0.0,0.0,-0.2301533079552962,0.15343553863686413,-0.07671776931843206,-0.05425945669412613,-0.04565715417265892,0.15491853654384613,0.02447812259197235,0.2103997766971588,0.24760136008262634,0.2756907343864441,-0.09820571541786194,-0.01500161923468113,-0.08789072930812836,-0.024949893355369568,0.07772359251976013,0.12602084875106812,0.18297529220581055,-0.011121403193101287,0.11075876001268625,0.047107214108109474,-0.03315037861466408,-0.003250591456890106,-0.14596837013959885,-0.07297258079051971,-0.024551428854465485,-0.0037504048086702824,-0.01778389234095812,0.11593557521700859,0.031124603934586048,-0.007764697074890137,-0.010106712579727173,-0.011121403193101287,0.11075876001268625,0.047107214108109474,-0.03315037861466408,-0.003250591456890106,-0.14596837013959885,-0.07297258079051971,-0.024551428854465485,-0.0037504048086702824,-0.01778389234095812,0.11593557521700859,0.031124603934586048,-0.007764697074890137,-0.010106712579727173,-0.008999353955595549,0.09414006006792208,0.05746332937573967,-0.015339807878856249,0.006135923151542766,-0.16413594430376355,-0.07056311624273937,-0.006865416237336941,0.0053300719109731914,-0.016498815585258737,0.10043960783683928,0.06306365461307618,-0.01803279637314454,0.002863430804053227
19.431274522999956,0.0,0.0,0.10253809355466686,-0.00545415391248228,0.061086523819801536,-0.054069979925117556,0.03978734371848273,-0.9977441578634899,1.0,1.0,0.0,-0.0,-0.0,-0.0,-0.0,-0.0,-0.0,-0.07671776931843206,0.0,-0.0,0.0,-0.2301533079552962,0.15343553863686413,0.0,-0.055611155927181244,-0.04219283536076546,0.14814169704914093,0.03055129200220108,0.20779287815093994,0.246540367603302,0.283313512802124,-0.09464684873819351,-0.01354856789112091,-0.08769451826810837,-0.024478022009134293,0.0746237263083458,0.12332194298505783,0.18997138738632202,-0.011459328001365066,0.11162483971565962,0.045413004234433174,-0.031632086262106895,-0.0039023160934448242,-0.14623361825942993,-0.07106688618659973,-0.023661712184548378,-0.0033871419727802277,-0.01773483958095312,0.11605354305356741,0.030349637381732464,-0.008439423516392708,-0.008357688784599304,-0.011459328001365066,0.11162483971565962,0.045413004234433174,-0.031632086262106895,-0.0039023160934448242,-0.14623361825942993,-0.07106688618659973,-0.023661712184548378,-0.0033871419727802277,-0.01773483958095312,0.11605354305356741,0.030349637381732464,-0.008439423516392708,-0.008357688784599304,-0.008999353955595549,0.09414006006792208,0.05746332937573967,-0.015339807878856249,0.006135923151542766,-0.16413594430376355,-0.07056311624273937,-0.008399397025222743,0.0053300719109731914,-0.016498815585258737,0.10043960783683928,0.05846171224941922,-0.014964834797373379,0.002863430804053227
19.451335008,0.0,0.0,0.0818123086872342,0.003272492347489368,0.04363323129985824,-0.05407214664974511,0.038768708918685175,-0.9977841400651077,1.0,1.0,0.0,-0.0,-0.0,-0.0,-0.0,-0.0,-0.0,-0.07671776931843206,-0.07671776931843206,-0.0,0.0,-0.07671776931843206,0.07671776931843206,0.0,-0.054622456431388855,-0.041578251868486404,0.14588020741939545,0.034534938633441925,0.20270344614982605,0.24263784289360046,0.28657081723213196,-0.09965915232896805,-0.015528776682913303,-0.08871440589427948,-0.02530408278107643,0.07356994599103928,0.12045451253652573,0.19100944697856903,-0.011212153127416968,0.11177848558872938,0.0448476318269968,-0.030636174604296684,-0.005174674093723297,-0.14720924943685532,-0.07025256007909775,-0.024914788082242012,-0.003882194170728326,-0.0179898114874959,0.11584702786058187,0.030086192302405834,-0.009156281128525734,-0.008098173886537552,-0.011212153127416968,0.11177848558872938,0.0448476318269968,-0.030636174604296684,-0.005174674093723297,-0.14720924943685532,-0.07025256007909775,-0.024914788082242012,-0.003882194170728326,-0.0179898114874959,0.11584702786058187,0.030086192302405834,-0.009156281128525734,-0.008098173886537552,-0.008999353955595549,0.09414006006792208,0.05746332937573967,-0.015339807878856249,0.006135923151542766,-0.16413594430376355,-0.07056311624273937,-0.008399397025222743,0.003796091123087833,-0.016498815585258737,0.10043960783683928,0.05692773146153386,-0.014964834797373379,0.002863430804053227
19.47132230699998,0.0,0.0,0.0719948316447661,-0.001090830782496456,0.003272492347489368,-0.05407425734624876,0.03774995324172083,-0.9978230883892694,1.0,1.0,0.0,-0.0,-0.0,-0.07671776931843206,-0.0,-0.0,-0.0,0.0,0.0,-0.0,0.0,-0.15343553863686413,0.0,0.0,-0.05535285174846649,-0.041047897189855576,0.14480145275592804,0.03850002586841583,0.204735666513443,0.23696061968803406,0.2876206934452057,-0.10188345611095428,-0.015015293844044209,-0.08956821262836456,-0.02499077096581459,0.07392050325870514,0.12182178348302841,0.1946340799331665,-0.011394751956686378,0.11191107425838709,0.04457794316112995,-0.029644902795553207,-0.004666619002819061,-0.14862855523824692,-0.06999009102582932,-0.02547086402773857,-0.003753823461011052,-0.01820326317101717,0.11592535581439734,0.0301738316193223,-0.008814463391900063,-0.007192015647888184,-0.011394751956686378,0.11191107425838709,0.04457794316112995,-0.029644902795553207,-0.004666619002819061,-0.14862855523824692,-0.06999009102582932,-0.02547086402773857,-0.003753823461011052,-0.01820326317101717,0.11592535581439734,0.0301738316193223,-0.008814463391900063,-0.007192015647888184,-0.010533334743481351,0.09414006006792208,0.05746332937573967,-0.01687378866674205,0.006135923151542766,-0.16413594430376355,-0.07056311624273937,-0.008399397025222743,0.003796091123087833,-0.016498815585258737,0.10043960783683928,0.0538597698857627,-0.014964834797373379,0.002863430804053227
19.491432643999985,0.0,0.0,0.06544984694978735,0.015271630954950384,-0.01090830782496456,-0.05407631199490339,0.036731079845594754,-0.9978610024719908,1.0,1.0,-0.07671776931843206,-0.0,-0.0,-0.0,-0.0,-0.0,-0.0,0.0,0.0,-0.0,0.0,-0.07671776931843206,0.0,0.0,-0.05805887281894684,-0.040377069264650345,0.13913804292678833,0.0395374521613121,0.2027091681957245,0.23827913403511047,0.2923142611980438,-0.09400742501020432,-0.01384284533560276,-0.0894184410572052,-0.02514265477657318,0.07292558252811432,0.11778081208467484,0.19788412749767303,-0.012071257224306464,0.1120787812396884,0.043162090703845024,-0.02938554622232914,-0.005173243582248688,-0.1482989266514778,-0.06881669908761978,-0.02350185625255108,-0.00346071133390069,-0.01816582027822733,0.11588738486170769,0.029925101436674595,-0.009824706241488457,-0.006379503756761551,-0.012071257224306464,0.1120787812396884,0.043162090703845024,-0.02938554622232914,-0.005173243582248688,-0.1482989266514778,-0.06881669908761978,-0.02350185625255108,-0.00346071133390069,-0.01816582027822733,0.11588738486170769,0.029925101436674595,-0.009824706241488457,-0.006379503756761551,-0.010533334743481351,0.09414006006792208,0.05746332937573967,-0.01687378866674205,0.006135923151542766,-0.16413594430376355,-0.07056311624273937,-0.008399397025222743,0.003796091123087833,-0.016498815585258737,0.10043960783683928,0.0538597698857627,-0.014964834797373379,0.002863430804053227
19.51144405399998,0.0,0.0,0.05781403147231216,0.020725784867432664,-0.01090830782496456,-0.054078310576503794,0.035712091890144015,-0.9978978819588812,1.0,1.0,0.0,-0.0,-0.0,-0.0,-0.0,-0.0,-0.0,0.0,-0.07671776931843206,-0.0,0.0,0.0,0.0,0.0,-0.05440983921289444,-0.038995448499917984,0.13870808482170105,0.042887091636657715,0.19956445693969727,0.23734015226364136,0.2915804982185364,-0.09638766199350357,-0.014723801985383034,-0.08946895599365234,-0.024695400148630142,0.07390183210372925,0.11668312549591064,0.19683986902236938,-0.011158998822793365,0.11242418643087149,0.043054601177573204,-0.028548136353492737,-0.005959421396255493,-0.1485336720943451,-0.06900013983249664,-0.024096915498375893,-0.0036809504963457584,-0.018178449012339115,0.11599919851869345,0.030169163830578327,-0.010099127888679504,-0.006640568375587463,-0.011158998822793365,0.11242418643087149,0.043054601177573204,-0.028548136353492737,-0.005959421396255493,-0.1485336720943451,-0.06900013983249664,-0.024096915498375893,-0.0036809504963457584,-0.018178449012339115,0.11599919851869345,0.030169163830578327,-0.010099127888679504,-0.006640568375587463,-0.010533334743481351,0.09414006006792208,0.05746332937573967,-0.01687378866674205,0.006135923151542766,-0.16413594430376355,-0.07056311624273937,-0.008399397025222743,0.0022621103352020305,-0.016498815585258737,0.10043960783683928,0.0538597698857627,-0.014964834797373379,0.002863430804053227
19.531521649999945,0.0,0.0,0.032724923474893676,0.014180800172453928,-0.017453292519943295,-0.054078310576503794,0.035712091890144015,-0.9978978819588812,1.0,1.0,0.0,-0.0,-0.0,-0.0,-0.07671776931843206,-0.0,-0.0,0.0,0.0,-0.0,0.0,0.0,0.0,0.0,-0.05253174528479576,-0.03787746652960777,0.13892872631549835,0.04669719934463501,0.196802020072937,0.23300853371620178,0.2914317548274994,-0.09663417935371399,-0.015466413460671902,-0.09320689737796783,-0.026156127452850342,0.0787753239274025,0.11931142956018448,0.1984739601612091,-0.010689475340768695,0.11270368192344904,0.04310976155102253,-0.027595609426498413,-0.006650030612945557,-0.149616576731205,-0.06903732568025589,-0.024158544838428497,-0.0038666033651679754,-0.019112934358417988,0.1156340166926384,0.03138753678649664,-0.009442051872611046,-0.006232045590877533,-0.010689475340768695,0.11270368192344904,0.04310976155102253,-0.027595609426498413,-0.006650030612945557,-0.149616576731205,-0.06903732568025589,-0.024158544838428497,-0.0038666033651679754,-0.019112934358417988,0.1156340166926384,0.03138753678649664,-0.009442051872611046,-0.006232045590877533,-0.010533334743481351,0.09414006006792208,0.05746332937573967,-0.01687378866674205,0.004601942363656963,-0.16413594430376355,-0.07056311624273937,-0.008399397025222743,0.0022621103352020305,-0.016498815585258737,0.10043960783683928,0.0538597698857627,-0.014964834797373379,0.002863430804053227
19.55161578299999,0.0,0.0,0.015271630954950384,0.019634954084936207,-0.026179938779914945,-0.05306277153192608,0.034694889078567055,-0.9979882799658404,1.0,1.0,0.0,-0.0,-0.0,-0.0,-0.0,-0.0,-0.0,0.0,0.0,-0.0,0.0,0.0,0.0,0.0,-0.051395852118730545,-0.0372876413166523,0.13379119336605072,0.05088966339826584,0.19494956731796265,0.23461845517158508,0.2932588756084442,-0.0970975011587143,-0.01368136890232563,-0.09485414624214172,-0.024878349155187607,0.08061136305332184,0.11606784164905548,0.20089630782604218,-0.01040550204925239,0.11285113822668791,0.04182537831366062,-0.026547493413090706,-0.007113143801689148,-0.14921409636735916,-0.06858054548501968,-0.024274375289678574,-0.0034203422255814075,-0.01952474657446146,0.11595346126705408,0.031846546567976475,-0.010252948850393295,-0.005626458674669266,-0.01040550204925239,0.11285113822668791,0.04182537831366062,-0.026547493413090706,-0.007113143801689148,-0.14921409636735916,-0.06858054548501968,-0.024274375289678574,-0.0034203422255814075,-0.01952474657446146,0.11595346126705408,0.031846546567976475,-0.010252948850393295,-0.005626458674669266,-0.010533334743481351,0.09414006006792208,0.05746332937573967,-0.01687378866674205,0.004601942363656963,-0.16413594430376355,-0.07056311624273937,-0.008399397025222743,0.0022621103352020305,-0.016498815585258737,0.10043960783683928,0.0538597698857627,-0.014964834797373379,0.002863430804053227
19.571677118999958,0.0,0.0,0.015271630954950384,0.016362461737446838,-0.03490658503988659,-0.05306277153192608,0.034694889078567055,-0.9979882799658404,1.0,1.0,0.0,-0.0,-0.0,-0.0,-0.0,-0.0,-0.0,0.0,0.0,-0.0,0.0,0.0,0.0,0.0,-0.05031050741672516,-0.03624534234404564,0.13417842984199524,0.053172849118709564,0.19147473573684692,0.23352211713790894,0.29469749331474304,-0.09784144163131714,-0.013265379704535007,-0.0948142483830452,-0.025702230632305145,0.08102396130561829,0.11645084619522095,0.20088279247283936,-0.010134165873751044,0.11311171296983957,0.04192218743264675,-0.025976696982979774,-0.007981851696968079,-0.1494881808757782,-0.06822089105844498,-0.024460360407829285,-0.003316344926133752,-0.01951477210968733,0.1157474908977747,0.03194969613105059,-0.010157197713851929,-0.005629837512969971,-0.010134165873751044,0.11311171296983957,0.04192218743264675,-0.025976696982979774,-0.007981851696968079,-0.1494881808757782,-0.06822089105844498,-0.024460360407829285,-0.003316344926133752,-0.01951477210968733,0.1157474908977747,0.03194969613105059,-0.010157197713851929,-0.005629837512969971,-0.010533334743481351,0.09414006006792208,0.05746332937573967,-0.01687378866674205,0.004601942363656963,-0.16413594430376355,-0.07056311624273937,-0.008399397025222743,0.0022621103352020305,-0.016498815585258737,0.10043960783683928,0.0538597698857627,-0.014964834797373379,0.002863430804053227
19.591694233,0.0,0.0,0.001090830782496456,0.015271630954950384,-0.04363323129985824,-0.05306277153192608,0.034694889078567055,-0.9979882799658404,1.0,1.0,0.0,-0.0,-0.0,-0.0,-0.0,-0.0,-0.0,0.0,0.0,-0.0,0.0,0.0,0.0,0.0,-0.04974072054028511,-0.036066632717847824,0.1327175796031952,0.05549653619527817,0.18940463662147522,0.23312777280807495,0.2958360016345978,-0.0987575575709343,-0.01255978737026453,-0.0960269495844841,-0.02607802301645279,0.08182788640260696,0.11676285415887833,0.2021634876728058,-0.009991719154641032,0.11315639037638903,0.04155697487294674,-0.025395775213837624,-0.008499376475811005,-0.1495867669582367,-0.06793626397848129,-0.024689389392733574,-0.0031399468425661325,-0.019817947410047054,0.11565354280173779,0.032150677405297756,-0.010079195722937584,-0.005309663712978363,-0.009991719154641032,0.11315639037638903,0.04155697487294674,-0.025395775213837624,-0.008499376475811005,-0.1495867669582367,-0.06793626397848129,-0.024689389392733574,-0.0031399468425661325,-0.019817947410047054,0.11565354280173779,0.032150677405297756,-0.010079195722937584,-0.005309663712978363,-0.010533334743481351,0.09414006006792208,0.05746332937573967,-0.01687378866674205,0.004601942363656963,-0.16413594430376355,-0.07056311624273937,-0.008399397025222743,0.0022621103352020305,-0.016498815585258737,0.10043960783683928,0.0538597698857627,-0.014964834797373379,0.002863430804053227
19.611788865999983,0.0,0.0,-0.019634954084936207,0.008726646259971648,-0.01090830782496456,-0.05306277153192608,0.034694889078567055,-0.9979882799658404,1.0,1.0,0.0,-0.0,-0.0,-0.0,-0.0,-0.0,-0.0,0.0,0.0,-0.0,0.0,0.0,0.0,0.0,-0.04889856278896332,-0.035370972007513046,0.13016483187675476,0.05967576801776886,0.18709906935691833,0.23273640871047974,0.29709917306900024,-0.10216853767633438,-0.012264678254723549,-0.09786039590835571,-0.026592522859573364,0.08395196497440338,0.11697198450565338,0.20467665791511536,-0.009781179716810584,0.11333030555397272,0.04091878794133663,-0.02435096725821495,-0.009075768291950226,-0.1496846079826355,-0.06762047111988068,-0.025542134419083595,-0.0030661695636808872,-0.020276308991014957,0.11552491784095764,0.03268169704824686,-0.01002691313624382,-0.0046813711524009705,-0.009781179716810584,0.11333030555397272,0.04091878794133663,-0.02435096725821495,-0.009075768291950226,-0.1496846079826355,-0.06762047111988068,-0.025542134419083595,-0.0030661695636808872,-0.020276308991014957,0.11552491784095764,0.03268169704824686,-0.01002691313624382,-0.0046813711524009705,-0.010533334743481351,0.09414006006792208,0.05746332937573967,-0.01687378866674205,0.004601942363656963,-0.16413594430376355,-0.07056311624273937,-0.009933377813108546,0.0022621103352020305,-0.016498815585258737,0.10043960783683928,0.0538597698857627,-0.014964834797373379,0.002863430804053227
19.631926609999994,0.0,0.0,-0.011999138607461015,0.009817477042468103,-0.001090830782496456,-0.05306086537436713,0.03571404400197788,-0.9979524295409817,1.0,1.0,0.0,-0.0,-0.0,-0.0,-0.0,-0.0,-0.0,-0.07671776931843206,0.0,-0.0,0.0,0.0,0.0,0.0,-0.04882711172103882,-0.0353645496070385,0.1298302263021469,0.06045518070459366,0.18643483519554138,0.2323126196861267,0.29808685183525085,-0.10195120424032211,-0.012817073613405228,-0.09805212914943695,-0.02690831944346428,0.08431600034236908,0.11654481291770935,0.204306498169899,-0.00976331694982946,0.11333191115409136,0.04083513654768467,-0.02415611408650875,-0.009241826832294464,-0.14979055523872375,-0.06737355142831802,-0.025487801060080528,-0.003204268403351307,-0.020324242301285267,0.11544596869498491,0.032772705890238285,-0.010133706033229828,-0.004773911088705063,-0.00976331694982946,0.11333191115409136,0.04083513654768467,-0.02415611408650875,-0.009241826832294464,-0.14979055523872375,-0.06737355142831802,-0.025487801060080528,-0.003204268403351307,-0.020324242301285267,0.11544596869498491,0.032772705890238285,-0.010133706033229828,-0.004773911088705063,-0.010533334743481351,0.09414006006792208,0.05746332937573967,-0.01687378866674205,0.004601942363656963,-0.16413594430376355,-0.07056311624273937,-0.009933377813108546,0.0022621103352020305,-0.016498815585258737,0.10043960783683928,0.0538597698857627,-0.014964834797373379,0.002863430804053227
19.65196283499995,0.0,0.0,-0.015271630954950384,0.013089969389957472,0.001090830782496456,-0.05306086537436713,0.03571404400197788,-0.9979524295409817,1.0,1.0,0.0,-0.0,-0.0,-0.0,-0.0,-0.0,-0.0,0.0,0.0,-0.0,0.0,0.0,0.0,0.0,-0.04717989265918732,-0.0357179157435894,0.13116347789764404,0.060786545276641846,0.18520528078079224,0.2329159677028656,0.2982318103313446,-0.10885521024465561,-0.011911970563232899,-0.09659961611032486,-0.02668081969022751,0.0821639895439148,0.11548839509487152,0.20486366748809814,-0.009351512184366584,0.11324356961995363,0.04116844944655895,-0.024073272943496704,-0.00954921543598175,-0.14963971823453903,-0.06733731180429459,-0.027213802561163902,-0.0029779926408082247,-0.019961114041507244,0.1155028436332941,0.032234703190624714,-0.010397810488939285,-0.0046346187591552734,-0.009351512184366584,0.11324356961995363,0.04116844944655895,-0.024073272943496704,-0.00954921543598175,-0.14963971823453903,-0.06733731180429459,-0.027213802561163902,-0.0029779926408082247,-0.019961114041507244,0.1155028436332941,0.032234703190624714,-0.010397810488939285,-0.0046346187591552734,-0.010533334743481351,0.09414006006792208,0.05746332937573967,-0.01687378866674205,0.004601942363656963,-0.16413594430376355,-0.07056311624273937,-0.009933377813108546,0.0022621103352020305,-0.016498815585258737,0.10043960783683928,0.0538597698857627,-0.014964834797373379,0.002863430804053227
19.672022208999977,0.0,0.0,-0.0272707695624114,0.009817477042468103,0.02399827721492203,-0.05305890418028933,0.03673308750943107,-0.9979155440062107,1.0,1.0,0.0,-0.0,-0.0,-0.0,-0.0,-0.0,-0.0,0.0,0.0,-0.0,0.0,0.0,0.0,0.0,-0.04910612106323242,-0.03510119393467903,0.12786465883255005,0.061999574303627014,0.18455198407173157,0.23260411620140076,0.2988230288028717,-0.10168374329805374,-0.0126638850197196,-0.09966660290956497,-0.02783135324716568,0.08594164252281189,0.11685371398925781,0.2056030035018921,-0.00983306928537786,0.11339775007218122,0.040343744680285454,-0.023770015686750412,-0.009712539613246918,-0.14971768110990524,-0.06718950718641281,-0.025420935824513435,-0.0031659712549299,-0.020727860741317272,0.11521521024405956,0.03317911643534899,-0.010056480765342712,-0.004449784755706787,-0.00983306928537786,0.11339775007218122,0.040343744680285454,-0.023770015686750412,-0.009712539613246918,-0.14971768110990524,-0.06718950718641281,-0.025420935824513435,-0.0031659712549299,-0.020727860741317272,0.11521521024405956,0.03317911643534899,-0.010056480765342712,-0.004449784755706787,-0.010533334743481351,0.09414006006792208,0.05746332937573967,-0.01687378866674205,0.004601942363656963,-0.16413594430376355,-0.07056311624273937,-0.009933377813108546,0.0022621103352020305,-0.016498815585258737,0.10043960783683928,0.0538597698857627,-0.014964834797373379,0.002863430804053227
19.692111489999945,0.0,0.0,-0.0272707695624114,0.002181661564992912,0.028361600344907856,-0.05305890418028933,0.03673308750943107,-0.9979155440062107,1.0,1.0,0.0,-0.0,-0.0,-0.0,-0.0,-0.0,-0.0,0.0,0.0,-0.0,0.0,0.0,0.0,0.0,-0.04815055802464485,-0.03526173159480095,0.12790003418922424,0.0639994740486145,0.18424859642982483,0.23170238733291626,0.2991213798522949,-0.10124003142118454,-0.01302463747560978,-0.10006916522979736,-0.027621295303106308,0.08657047152519226,0.11739107966423035,0.20674055814743042,-0.009594178525730968,0.11335761565715075,0.040352588519454,-0.02327004075050354,-0.009788386523723602,-0.14994311332702637,-0.067114919424057,-0.025310007855296135,-0.003256159368902445,-0.02082850132137537,0.1152677247300744,0.03333632368594408,-0.009922139346599579,-0.004165396094322205,-0.009594178525730968,0.11335761565715075,0.040352588519454,-0.02327004075050354,-0.009788386523723602,-0.14994311332702637,-0.067114919424057,-0.025310007855296135,-0.003256159368902445,-0.02082850132137537,0.1152677247300744,0.03333632368594408,-0.009922139346599579,-0.004165396094322205,-0.010533334743481351,0.09414006006792208,0.05746332937573967,-0.01687378866674205,0.004601942363656963,-0.16413594430376355,-0.07056311624273937,-0.009933377813108546,0.0022621103352020305,-0.016498815585258737,0.10043960783683928,0.0538597698857627,-0.014964834797373379,0.002863430804053227
19.712160344999972,0.0,0.0,-0.02945243112740431,0.003272492347489368,0.020725784867432664,-0.05305688796803003,0.037752016438790593,-0.9978776237064109,1.0,1.0,0.0,-0.0,-0.0,-0.0,-0.0,-0.0,-0.0,0.0,0.0,-0.0,0.0,0.0,0.0,0.0,-0.04802733659744263,-0.03537548705935478,0.12770916521549225,0.06435041129589081,0.18335771560668945,0.23155292868614197,0.2994515001773834,-0.10182309150695801,-0.013143492862582207,-0.10070665180683136,-0.028038974851369858,0.08635881543159485,0.1178346574306488,0.20695972442626953,-0.009563373168930411,0.11332917679101229,0.040304871276021004,-0.023182306438684464,-0.010011106729507446,-0.14998047798871994,-0.06703238934278488,-0.025455772876739502,-0.0032858732156455517,-0.02098787296563387,0.11516330484300852,0.03328340966254473,-0.009811244904994965,-0.004110604524612427,-0.009563373168930411,0.11332917679101229,0.040304871276021004,-0.023182306438684464,-0.010011106729507446,-0.14998047798871994,-0.06703238934278488,-0.025455772876739502,-0.0032858732156455517,-0.02098787296563387,0.11516330484300852,0.03328340966254473,-0.009811244904994965,-0.004110604524612427,-0.010533334743481351,0.09414006006792208,0.05746332937573967,-0.01687378866674205,0.004601942363656963,-0.16413594430376355,-0.07056311624273937,-0.009933377813108546,0.0022621103352020305,-0.016498815585258737,0.10043960783683928,0.0538597698857627,-0.014964834797373379,0.002863430804053227
19.732378403999974,0.0,0.0,-0.03381575425739013,-0.004363323129985824,0.020725784867432664,-0.052037321642496706,0.03877290632186029,-0.9978921679678779,1.0,1.0,0.0,-0.0,-0.0,-0.0,-0.0,-0.0,-0.0,0.0,0.0,-0.0,0.0,0.0,0.0,0.0,-0.04789845645427704,-0.03580756112933159,0.12753555178642273,0.06513601541519165,0.18326039612293243,0.23192378878593445,0.2994793653488159,-0.10227857530117035,-0.013260900974273682,-0.1014571338891983,-0.028234492987394333,0.08660756051540375,0.11868777871131897,0.20800913870334625,-0.009531153133139014,0.11322115827351809,0.040261467918753624,-0.022985905408859253,-0.010035436600446701,-0.14988776296377182,-0.06702542304992676,-0.025569643825292587,-0.0033152252435684204,-0.021175493486225605,0.1151144253090024,0.03334559593349695,-0.009597964584827423,-0.0038482509553432465,-0.009531153133139014,0.11322115827351809,0.040261467918753624,-0.022985905408859253,-0.010035436600446701,-0.14988776296377182,-0.06702542304992676,-0.025569643825292587,-0.0033152252435684204,-0.021175493486225605,0.1151144253090024,0.03334559593349695,-0.009597964584827423,-0.0038482509553432465,-0.010533334743481351,0.09414006006792208,0.05746332937573967,-0.01687378866674205,0.004601942363656963,-0.16413594430376355,-0.07056311624273937,-0.009933377813108546,0.0022621103352020305,-0.016498815585258737,0.10043960783683928,0.0538597698857627,-0.014964834797373379,0.002863430804053227
19.75242716599996,0.0,0.0,-0.04363323129985824,-0.006544984694978736,0.014180800172453928,-0.05203523600381385,0.039791651061740006,-0.9978521727790185,1.0,1.0,0.0,-0.0,-0.0,-0.0,-0.0,-0.0,-0.0,0.0,0.0,-0.0,0.0,0.0,0.0,0.0,-0.047499269247055054,-0.03598351404070854,0.1271532028913498,0.06611627340316772,0.18194398283958435,0.23204097151756287,0.29942184686660767,-0.10316295921802521,-0.013010040856897831,-0.1028537005186081,-0.02880316600203514,0.08692812919616699,0.11980493366718292,0.2090223729610443,-0.009431356331333518,0.11317717004567385,0.04016588069498539,-0.022740840911865234,-0.010364539921283722,-0.14985846728086472,-0.06703980267047882,-0.025790739804506302,-0.0032525102142244577,-0.021524635143578053,0.1149722570553422,0.03342573810368776,-0.009318675845861435,-0.0035949423909187317,-0.009431356331333518,0.11317717004567385,0.04016588069498539,-0.022740840911865234,-0.010364539921283722,-0.14985846728086472,-0.06703980267047882,-0.025790739804506302,-0.0032525102142244577,-0.021524635143578053,0.1149722570553422,0.03342573810368776,-0.009318675845861435,-0.0035949423909187317,-0.010533334743481351,0.09414006006792208,0.05746332937573967,-0.01687378866674205,0.004601942363656963,-0.16413594430376355,-0.07056311624273937,-0.009933377813108546,0.0022621103352020305,-0.016498815585258737,0.10043960783683928,0.0538597698857627,-0.014964834797373379,0.002863430804053227
19.772358372999975,0.0,0.0,-0.037088246604879506,-0.007635815477475192,-0.002181661564992912,-0.05203523600381385,0.039791651061740006,-0.9978521727790185,1.0,1.0,0.0,-0.0,-0.0,-0.0,-0.0,-0.0,-0.0,0.0,0.0,-0.0,0.0,0.0,0.0,0.0,-0.04730277508497238,-0.03612806275486946,0.1279532015323639,0.06601683795452118,0.18254885077476501,0.23176676034927368,0.29938843846321106,-0.10380082577466965,-0.013011853210628033,-0.10270758718252182,-0.028699327260255814,0.08623279631137848,0.1200270801782608,0.20835930109024048,-0.00938223279081285,0.11314103286713362,0.040365880355238914,-0.02276569977402687,-0.010213322937488556,-0.149927020072937,-0.06704815477132797,-0.025950206443667412,-0.003252963302657008,-0.021488106809556484,0.11499821674078703,0.033251904882490635,-0.009263139218091965,-0.00376071035861969,-0.00938223279081285,0.11314103286713362,0.040365880355238914,-0.02276569977402687,-0.010213322937488556,-0.149927020072937,-0.06704815477132797,-0.025950206443667412,-0.003252963302657008,-0.021488106809556484,0.11499821674078703,0.033251904882490635,-0.009263139218091965,-0.00376071035861969,-0.010533334743481351,0.09414006006792208,0.05746332937573967,-0.01687378866674205,0.004601942363656963,-0.16413594430376355,-0.07056311624273937,-0.009933377813108546,0.0022621103352020305,-0.016498815585258737,0.10043960783683928,0.0538597698857627,-0.014964834797373379,0.002863430804053227
19.79239952399996,0.0,0.0,-0.032724923474893676,-0.009817477042468103,-0.007635815477475192,-0.05203309645330652,0.04081027172808354,-0.9978111437516425,1.0,1.0,0.0,-0.0,-0.0,-0.0,-0.0,0.07671776931843206,-0.0,0.0,0.0,-0.0,0.0,0.0,0.07671776931843206,0.0,-0.04792487621307373,-0.03644094988703728,0.12795613706111908,0.06433896720409393,0.18283075094223022,0.23505833745002747,0.3005736172199249,-0.10357342660427094,-0.012817036360502243,-0.10276985913515091,-0.02855008840560913,0.08553224802017212,0.12122416496276855,0.20678618550300598,-0.009537758072838187,0.11306281108409166,0.04036661423742771,-0.023185167461633682,-0.010142847895622253,-0.14910412579774857,-0.0667518600821495,-0.025893356651067734,-0.0032042590901255608,-0.021503674797713757,0.1150355264544487,0.033076767809689045,-0.008963868021965027,-0.004153989255428314,-0.009537758072838187,0.11306281108409166,0.04036661423742771,-0.023185167461633682,-0.010142847895622253,-0.14910412579774857,-0.0667518600821495,-0.025893356651067734,-0.0032042590901255608,-0.021503674797713757,0.1150355264544487,0.033076767809689045,-0.008963868021965027,-0.004153989255428314,-0.010533334743481351,0.09414006006792208,0.05746332937573967,-0.01687378866674205,0.004601942363656963,-0.16260196351587775,-0.07056311624273937,-0.009933377813108546,0.0022621103352020305,-0.016498815585258737,0.10043960783683928,0.0538597698857627,-0.013430854009487576,0.002863430804053227
19.812501341999962,0.0,0.0,-0.02399827721492203,-0.01090830782496456,-0.011999138607461015,-0.05304827332178796,0.041826523196025124,-0.9977156020905503,1.0,1.0,0.0,-0.0,-0.0,-0.0,-0.0,-0.0,-0.0,0.0,0.0,-0.0,0.0,0.0,0.0,0.0,-0.04788012057542801,-0.03497612848877907,0.12874162197113037,0.05976531654596329,0.17784197628498077,0.23642584681510925,0.30007845163345337,-0.10690352320671082,-0.013146249577403069,-0.10169761627912521,-0.028815560042858124,0.08390708267688751,0.12362004071474075,0.19905181229114532,-0.009526569163426757,0.11342901643365622,0.040562985464930534,-0.024328580126166344,-0.011390041559934616,-0.14876224845647812,-0.0668756514787674,-0.026725880801677704,-0.003286562394350767,-0.021235614083707333,0.11496915854513645,0.03267047647386789,-0.008364899083971977,-0.006087582558393478,-0.009526569163426757,0.11342901643365622,0.040562985464930534,-0.024328580126166344,-0.011390041559934616,-0.14876224845647812,-0.0668756514787674,-0.026725880801677704,-0.003286562394350767,-0.021235614083707333,0.11496915854513645,0.03267047647386789,-0.008364899083971977,-0.006087582558393478,-0.010533334743481351,0.09414006006792208,0.05746332937573967,-0.01687378866674205,0.004601942363656963,-0.16260196351587775,-0.07056311624273937,-0.009933377813108546,0.0022621103352020305,-0.016498815585258737,0.10043960783683928,0.0538597698857627,-0.013430854009487576,0.002863430804053227
19.832619937999993,0.0,0.0,-0.016362461737446838,-0.009817477042468103,-0.00545415391248228,-0.05304827332178796,0.041826523196025124,-0.9977156020905503,1.0,1.0,0.0,-0.0,-0.0,-0.0,-0.0,-0.0,-0.0,0.0,0.0,-0.0,0.0,0.0,0.0,0.0,-0.04873620718717575,-0.037585075944662094,0.1306154727935791,0.06187484413385391,0.18499037623405457,0.23466846346855164,0.29964637756347656,-0.10353697091341019,-0.0134998494759202,-0.1019345298409462,-0.028341293334960938,0.08310142159461975,0.1255388706922531,0.2039981186389923,-0.009740590816363692,0.11277677956968546,0.04103144817054272,-0.023801198229193687,-0.009602941572666168,-0.14920159429311752,-0.0669836699962616,-0.025884242728352547,-0.00337496236898005,-0.02129484247416258,0.11508772522211075,0.03246906120330095,-0.007885191589593887,-0.004851005971431732,-0.009740590816363692,0.11277677956968546,0.04103144817054272,-0.023801198229193687,-0.009602941572666168,-0.14920159429311752,-0.0669836699962616,-0.025884242728352547,-0.00337496236898005,-0.02129484247416258,0.11508772522211075,0.03246906120330095,-0.007885191589593887,-0.004851005971431732,-0.010533334743481351,0.09414006006792208,0.05746332937573967,-0.01687378866674205,0.004601942363656963,-0.16260196351587775,-0.07056311624273937,-0.009933377813108546,0.0022621103352020305,-0.016498815585258737,0.10043960783683928,0.0538597698857627,-0.013430854009487576,0.002863430804053227
19.852967311999976,0.0,0.0,-0.01090830782496456,-0.009817477042468103,0.004363323129985824,-0.05304598231153735,0.042844831867010935,-0.9976725134746831,1.0,1.0,0.0,-0.0,-0.0,-0.0,-0.0,-0.0,-0.0,0.0,0.0,-0.0,0.0,0.0,0.0,0.0,-0.0489250123500824,-0.037606511265039444,0.1312200129032135,0.06052551418542862,0.18582236766815186,0.234732985496521,0.2993004024028778,-0.10295406728982925,-0.014165753498673439,-0.10190641134977341,-0.028876088559627533,0.08221426606178284,0.1256948560476303,0.2035110890865326,-0.009787792107090354,0.11277142073959112,0.04118258319795132,-0.02413853071630001,-0.009394943714141846,-0.14918546378612518,-0.06707016378641129,-0.025738516822457314,-0.0035414383746683598,-0.02128781285136938,0.1149540264159441,0.032247272320091724,-0.007846195250749588,-0.004972763359546661,-0.009787792107090354,0.11277142073959112,0.04118258319795132,-0.02413853071630001,-0.009394943714141846,-0.14918546378612518,-0.06707016378641129,-0.025738516822457314,-0.0035414383746683598,-0.02128781285136938,0.1149540264159441,0.032247272320091724,-0.007846195250749588,-0.004972763359546661,-0.010533334743481351,0.09414006006792208,0.05746332937573967,-0.01687378866674205,0.004601942363656963,-0.16260196351587775,-0.07056311624273937,-0.009933377813108546,0.0022621103352020305,-0.016498815585258737,0.10043960783683928,0.0538597698857627,-0.013430854009487576,0.002863430804053227
19.87276023999999,0.0,0.0,-0.008726646259971648,-0.013089969389957472,0.009817477042468103,-0.05304598231153735,0.042844831867010935,-0.9976725134746831,1.0,1.0,0.0,-0.0,-0.0,-0.0,-0.0,-0.0,-0.0,0.0,0.0,-0.0,0.0,0.0,0.0,0.0,-0.04913454130291939,-0.03794165328145027,0.13171985745429993,0.06022319942712784,0.18684270977973938,0.23456314206123352,0.2989320158958435,-0.10247911512851715,-0.014438026584684849,-0.10182920098304749,-0.028743088245391846,0.08209805935621262,0.12615151703357697,0.20348289608955383,-0.009840174345299602,0.11268763523548841,0.04130754433572292,-0.024214109405875206,-0.009139858186244965,-0.14922792464494705,-0.06716226041316986,-0.025619778782129288,-0.003609506646171212,-0.0212685102596879,0.11498727649450302,0.03221822064369917,-0.007732030004262924,-0.004979811608791351,-0.009840174345299602,0.11268763523548841,0.04130754433572292,-0.024214109405875206,-0.009139858186244965,-0.14922792464494705,-0.06716226041316986,-0.025619778782129288,-0.003609506646171212,-0.0212685102596879,0.11498727649450302,0.03221822064369917,-0.007732030004262924,-0.004979811608791351,-0.010533334743481351,0.09414006006792208,0.05746332937573967,-0.01687378866674205,0.004601942363656963,-0.16260196351587775,-0.07056311624273937,-0.009933377813108546,0.0022621103352020305,-0.016498815585258737,0.10043960783683928,0.0538597698857627,-0.013430854009487576,0.002863430804053227
