time_s,forward_cmd_m_s,yaw_cmd_rad_s,gyro_x,gyro_y,gyro_z,grav_x,grav_y,grav_z,left_contact,right_contact,left_hip_yaw_target_rad,left_hip_roll_target_rad,left_hip_pitch_target_rad,left_knee_target_rad,left_ankle_target_rad,neck_pitch_target_rad,head_pitch_target_rad,head_yaw_target_rad,head_roll_target_rad,right_hip_yaw_target_rad,right_hip_roll_target_rad,right_hip_pitch_target_rad,right_knee_target_rad,right_ankle_target_rad,left_hip_yaw_actual_rad,left_hip_roll_actual_rad,left_hip_pitch_actual_rad,left_knee_actual_rad,left_ankle_actual_rad,neck_pitch_actual_rad,head_pitch_actual_rad,head_yaw_actual_rad,head_roll_actual_rad,right_hip_yaw_actual_rad,right_hip_roll_actual_rad,right_hip_pitch_actual_rad,right_knee_actual_rad,right_ankle_actual_rad
22.948067003000006,0.0,0.0,0.04145156973486533,0.007635815477475192,-0.022907446432425576,-0.057152796071341744,-0.10307915005724134,-0.9930298317395627,1.0,1.0,-0.02425478375516832,0.07775932177901268,0.005951872793957591,0.0,-0.0015413165092468262,-0.16087814047932625,-0.17992479354143143,0.04025312140583992,0.045729268342256546,-0.02978444192558527,0.14879659190773964,0.014785435982048512,0.0,-0.015935909003019333,0.000204530771717934,0.06039248273443798,0.0015339807878858025,-0.012271846303085088,-0.09203884727313838,-0.22089323345553247,-0.1472621556370215,-0.0022634738736799775,-0.002339832028454933,-0.0011590077064024887,0.1234493196551241,-0.0013635384781204157,-0.008828911645830613,-0.06616570465080078
22.96642269200015,0.0,0.0,0.022907446432425576,0.00545415391248228,-0.008726646259971648,-0.057140655806392236,-0.10509799192961428,-0.992818894636065,1.0,1.0,-0.023388921981677413,0.0876326747238636,0.01033946848474443,0.0,-0.025417037308216095,-0.1503419131040573,-0.19410822913050652,0.0276525616645813,0.027027523145079613,-0.022625881247222424,0.14813846163451672,0.019235655665397644,0.0,-0.02292393520474434,0.000204530771717934,0.05732452115866682,-0.0,-0.012271846303085088,-0.08897088569736722,-0.2162912910918755,-0.1457281748491357,-0.0022634738736799775,-0.002339832028454933,-0.002692988494288291,0.11884737729146713,-0.0013635384781204157,-0.010362892433716415,-0.06463172386291498
22.98641498500001,0.0,0.0,0.026179938779914945,0.0,0.00545415391248228,-0.05713449936477532,-0.10610692739172559,-0.9927119264629711,1.0,1.0,-0.017391534289345145,0.09516001120209694,0.009559902595356107,0.0,-0.01857665181159973,-0.13568324595689774,-0.19780750200152397,0.030473578721284866,0.022541815415024757,-0.027848617173731327,0.15100856870412827,0.016621381044387817,0.0,-0.019206002354621887,-0.002863430804053227,0.05118859800712405,-0.0,-0.012271846303085088,-0.0813009817579391,-0.20401944478879042,-0.1334563285460506,-0.0022634738736799775,-0.002339832028454933,-0.002692988494288291,0.10197358862472508,-0.0028975192660062182,-0.010362892433716415,-0.05696181992348685
23.0063948720001,0.0,0.0,0.210530341021816,-0.03599741582238305,0.03599741582238305,-0.05712201414630422,-0.1081238124912187,-0.9924949957920358,1.0,1.0,0.01099168905057013,0.10887499712407589,-0.00930049829185009,0.0,-0.0282570943236351,-0.12145928293466568,-0.2122914120554924,0.04361142963171005,0.01884276606142521,-0.03097736556082964,0.1538746990263462,0.011440967005910352,0.0,-0.03824456408619881,-0.005931392379824388,0.04505267485558173,-0.0,-0.01380582709097089,-0.07363107781851097,-0.19941750242513345,-0.11965050145508016,-0.0022634738736799775,-0.002339832028454933,-0.008828911645830613,0.08816776153375419,-0.0028975192660062182,-0.010362892433716415,-0.04929191598405873
23.02657408899995,0.0,0.0,0.11235557059713497,-0.1505346479845109,0.11562806294462433,-0.062245351644158065,-0.1112253004789054,-0.9918439639036335,1.0,1.0,0.004345782799646258,0.10387342050671577,-0.015407556667923927,0.0,-0.018342234194278717,-0.12284710258245468,-0.21143938601016998,0.03405746445059776,0.006552345585078001,-0.0396120036020875,0.15282071940600872,0.015138932736590505,0.0,-0.03616463020443916,-0.008999353955595549,0.04045073249192477,-0.0,-0.01380582709097089,-0.06902913545485401,-0.19941750242513345,-0.10737865515199507,-0.00379745466156578,-0.0008058512405691304,-0.013430854009487576,0.07896387680644026,-0.0028975192660062182,-0.010362892433716415,-0.044689973620401766
23.046705158000123,0.0,0.0,-0.038179077387375956,-0.11999138607461016,0.09381144729469522,-0.06427788415825493,-0.11121094243253632,-0.9917159270130761,1.0,1.0,-0.011957846349105239,0.0997866615653038,-0.005698571912944317,0.0,-0.016039453446865082,-0.12439770996570587,-0.20123302936553955,0.02179938554763794,0.002071191556751728,-0.041996487416327,0.1495928280055523,0.01609972445294261,0.0,-0.026470646262168884,-0.010533334743481351,0.04045073249192477,-0.0,-0.01380582709097089,-0.06902913545485401,-0.19788352163724765,-0.0997087512125665,-0.0022634738736799775,0.0022621103352020305,-0.01803279637314454,0.0758959152306691,-0.0028975192660062182,-0.010362892433716415,-0.044689973620401766
23.066760450999936,0.0,0.0,0.03599741582238305,-0.037088246604879506,0.11562806294462433,-0.06427788415825493,-0.11121094243253632,-0.9917159270130761,1.0,1.0,-0.010994672542437911,0.09723562747240067,-0.005564154125750065,0.0,-0.0128353051841259,-0.1212601512670517,-0.2000582590699196,0.02637242153286934,-0.0029153688810765743,-0.049434331245720387,0.14595883712172508,0.018472314346581697,0.0,-0.021702274680137634,-0.008999353955595549,0.04045073249192477,-0.0,-0.01380582709097089,-0.06902913545485401,-0.1948155600614765,-0.09664078963679534,0.002338468489976986,0.006864052698858994,-0.022634738736801503,0.0758959152306691,-0.0028975192660062182,-0.010362892433716415,-0.044689973620401766
23.08672578200003,0.0,0.0,-0.08290313946973066,0.037088246604879506,0.07526732399225546,-0.06328296772421389,-0.10819346094784955,-0.9921136230312243,1.0,1.0,-0.02047570771537721,0.0937278438359499,-0.005324156954884529,0.0,-0.010386127978563309,-0.12363874167203903,-0.1835416704416275,0.013654100708663464,-0.007256592623889446,-0.059835703112185,0.1416835244745016,0.012680853484198451,0.0,-0.02946394309401512,-0.008999353955595549,0.04198471327981057,-0.0,-0.01380582709097089,-0.0674951546669682,-0.19174759848570533,-0.09510680884890954,0.006940410853633505,0.006864052698858994,-0.028770661888343825,0.0758959152306691,-0.0013635384781204157,-0.010362892433716415,-0.044689973620401766
23.106831778000014,0.0,0.0,-0.22471114119426994,0.04036073895236887,-0.04036073895236887,-0.06323275660938457,-0.10606784979638703,-0.9923463254988901,1.0,1.0,-0.029112463584169745,0.09019412100315094,-0.0037283506244421005,0.0,-0.011393319815397263,-0.12482432276010513,-0.17226764000952244,0.00943464133888483,-0.008676650002598763,-0.06290003005415201,0.14110540226101875,0.01226285903248936,0.0,-0.024718277156352997,-0.005931392379824388,0.04658665564346709,-0.0,-0.01380582709097089,-0.0674951546669682,-0.18561167533416256,-0.09510680884890954,0.013076334005176271,0.003796091123087833,-0.03337260425200079,0.07742989601855446,-0.0013635384781204157,-0.010362892433716415,-0.044689973620401766
23.126920143999996,0.0,0.0,-0.21489366415180183,0.011999138607461015,-0.09817477042468103,-0.06225611336717274,-0.10001801819644145,-0.9930360378075259,1.0,1.0,-0.026854453375563025,0.08997152000665665,-0.0020769527181982994,0.0,-0.017775021493434906,-0.12627103179693222,-0.16809532791376114,0.011544686742126942,-0.005864207167178392,-0.06391570810228586,0.1402717772871256,0.009063302539288998,0.0,-0.03204119950532913,-0.005931392379824388,0.05579054037078102,-0.0,-0.01380582709097089,-0.0674951546669682,-0.1810097329705056,-0.09664078963679534,0.017678276368833234,0.000728129547316228,-0.03797454661565775,0.08509979995798303,-0.0013635384781204157,-0.010362892433716415,-0.044689973620401766
23.147113379000075,0.0,0.0,-0.22471114119426994,-0.00545415391248228,-0.18980455615438332,-0.06221792154549856,-0.09587679713568631,-0.9934468128740263,1.0,1.0,-0.031938342144712806,0.08497252687811852,-0.0009656623005867004,0.0,-0.01655198633670807,-0.12850626558065414,-0.1641133427619934,0.0060736993327736855,-0.0074510835111141205,-0.0690152058377862,0.13968520052731037,0.009812134085223079,0.0,-0.02864416502416134,-0.005931392379824388,0.06192646352232378,-0.0,-0.01380582709097089,-0.06289321230331124,-0.17640779060684864,-0.10277671278833811,0.020746237944604395,-0.0008058512405691304,-0.042576488979314715,0.09276970389741115,-0.0013635384781204157,-0.010362892433716415,-0.044689973620401766
23.167099710000002,0.0,0.0,-0.272707695624114,0.019634954084936207,-0.19525871006686563,-0.06222996430042319,-0.09385502812522842,-0.9936391021083966,1.0,1.0,-0.040026662638410926,0.08238217234611511,-0.0006504785269498825,0.0,-0.01897916942834854,-0.12983109802007675,-0.1562990639358759,0.0004712911322712898,-0.0082031125202775,-0.07170370314270258,0.14043142832815647,0.01077131659258157,0.0,-0.0263742096722126,-0.008999353955595549,0.0680623866738661,-0.0,-0.01380582709097089,-0.05675728915176892,-0.17333982903107747,-0.11198059751565159,0.020746237944604395,-0.0008058512405691304,-0.04717843134297168,0.10197358862472508,-0.0013635384781204157,-0.010362892433716415,-0.044689973620401766
23.187162317000002,0.0,0.0,-0.33488505022641196,0.05345070834232634,-0.20943951023931956,-0.060185441070008366,-0.08466765438662195,-0.9945899159874264,1.0,1.0,-0.05129098682664335,0.0874205082654953,-0.002596038393676281,0.0,-0.013485811650753021,-0.12944845110177994,-0.14246674231253564,-0.007504723966121674,-0.015311984345316887,-0.07262802217155695,0.13625122886151075,0.016109715215861797,0.0,-0.027879469096660614,-0.012067315531367154,0.07266432903752307,-0.0,-0.01380582709097089,-0.052155346788111956,-0.1687378866674205,-0.12118448224296552,0.022280218732490198,-0.0008058512405691304,-0.05024639291874284,0.1096434925641532,-0.0013635384781204157,-0.010362892433716415,-0.04315599283251596
23.207211925000138,0.0,0.0,-0.2977968036215325,0.019634954084936207,-0.18980455615438332,-0.059184012404206884,-0.08163312055752675,-0.9949036567948571,1.0,1.0,-0.04723948775790632,0.0866466760635376,0.0012440057471394539,0.0,-0.014013230800628662,-0.13315535336732864,-0.14613449666649103,-0.003523344174027443,-0.01036061067134142,-0.06979502830654383,0.13946961238980293,0.01764814183115959,0.0,-0.026360146701335907,-0.018203238682909476,0.07419830982540887,-0.0,-0.01380582709097089,-0.05062136600022615,-0.16566992509164935,-0.13192234775816525,0.022280218732490198,-0.0008058512405691304,-0.05178037370662864,0.11117747335203901,-0.0013635384781204157,-0.008828911645830613,-0.041622012044630605
23.227329346000033,0.0,0.0,-0.3272492347489368,-0.044724062082354694,-0.1265363707695889,-0.06018221597406233,-0.07242266668065127,-0.9955566574692345,1.0,1.0,-0.04777647717855871,0.09201912768185139,0.0014866385608911514,0.0,-0.010670028626918793,-0.1316949725151062,-0.14622861053794622,-0.0021834708750247955,-0.011304980143904686,-0.06897974852472544,0.14145261235535145,0.023298866115510464,0.0,-0.027757417410612106,-0.02280518104656644,0.07419830982540887,-0.0,-0.012271846303085088,-0.05062136600022615,-0.16413594430376355,-0.14112623248547917,0.020746237944604395,0.0022621103352020305,-0.053314354494514445,0.11884737729146713,0.00017044230976494268,-0.008828911645830613,-0.03702006968097364
23.247519341000043,0.0,0.0,-0.3272492347489368,-0.044724062082354694,-0.1265363707695889,-0.06018221597406233,-0.07242266668065127,-0.9955566574692345,1.0,1.0,-0.05483651696704328,0.0888955183327198,-0.0014051496982574463,0.0,-0.004923693835735321,-0.13573115319013596,-0.14259262289851904,-0.008059730753302574,-0.01636502891778946,-0.07073752675205469,0.14155738800764084,0.026335240341722965,0.0,-0.02778620645403862,-0.027407123410223402,0.07419830982540887,-0.0,-0.012271846303085088,-0.04601942363656919,-0.16260196351587775,-0.15033011721279266,0.017678276368833234,0.003796091123087833,-0.0548483352823998,0.1234493196551241,0.00017044230976494268,-0.008828911645830613,-0.033952108105202036
23.267474339000046,0.0,0.0,-0.35779249665883756,0.018544123302439753,-0.02399827721492203,-0.06022358659823557,-0.062265064110040166,-0.9962410257606427,1.0,1.0,-0.05219954042695463,0.09607611037790775,0.0001306449994444847,0.0,-0.004715118557214737,-0.13483688235282898,-0.1371569070033729,-0.008717706426978111,-0.016046784818172455,-0.07225429359823465,0.1395129207521677,0.030242743901908398,0.0,-0.035529736429452896,-0.030475084985994563,0.07419830982540887,-0.0,-0.012271846303085088,-0.04295146206079803,-0.1610679827279924,-0.15646604036433542,0.013076334005176271,0.0053300719109731914,-0.056382316070285605,0.12498330044300945,0.0032384038855365477,-0.005760950070059452,-0.03241812731731668
23.287515261999943,0.0,0.0,-0.3097959422289935,-0.013089969389957472,-0.11017390903214205,-0.06019424227018993,-0.05305255250931994,-0.9967758423385689,1.0,1.0,-0.04895403771661222,0.09746599942445755,0.0021463176235556602,0.0,-0.002453986555337906,-0.1350812092423439,-0.13972705090418458,-0.008692589588463306,-0.012146014720201492,-0.06939172092825174,0.14516200311481953,0.035480436868965626,0.0,-0.03737327456474304,-0.03507702734965153,0.07419830982540887,-0.0,-0.012271846303085088,-0.03681553890925526,-0.1610679827279924,-0.1610679827279924,0.011542353217290469,0.003796091123087833,-0.05791629685817141,0.12805126201878106,0.007840346249193067,-0.00422696928217365,-0.030884146529430875
23.307885162000048,0.0,0.0,-0.2912518189265537,-0.06654067773228381,-0.19416787928436915,-0.061226466108999095,-0.047960731785382626,-0.9969709564748686,1.0,1.0,-0.04536107718013227,0.10074023716151714,0.0039145927876234055,0.0,-0.004756782203912735,-0.13727078586816788,-0.14050502376630902,-0.006985546555370092,-0.010519945994019508,-0.06907725427299738,0.1478261575102806,0.03763213288038969,0.0,-0.03958398476243019,-0.03661100813753733,0.07419830982540887,-0.0,-0.012271846303085088,-0.0337475773334841,-0.1610679827279924,-0.16260196351587775,0.01000837242940511,0.0022621103352020305,-0.06098425843394257,0.12958524280666642,0.010908307824964672,-0.00422696928217365,-0.030884146529430875
23.327736753999943,0.0,0.0,-0.3108867730114899,-0.030543261909900768,-0.21925698728178766,-0.062260101808353875,-0.04184695367446736,-0.9971822863403563,1.0,1.0,-0.049306748202070594,0.10186647064983845,-0.0010142689570784569,0.0,-0.0005932822823524475,-0.13499199599027634,-0.13686149148270488,-0.008653703145682812,-0.016179030761122704,-0.07344940397888422,0.14609569124877453,0.04392584878951311,0.0,-0.04547609202563763,-0.03814498892542313,0.07419830982540887,0.0015339807878858025,-0.012271846303085088,-0.02914563496982714,-0.1610679827279924,-0.16260196351587775,0.01000837242940511,0.000728129547316228,-0.06405222000971372,0.13111922359455222,0.013976269400735833,-0.002692988494288291,-0.029350165741545073
23.347886952999943,0.0,0.0,-0.3108867730114899,-0.030543261909900768,-0.21925698728178766,-0.062260101808353875,-0.04184695367446736,-0.9971822863403563,1.0,1.0,-0.04600564925931394,0.10313738323748112,-5.567632615566254e-05,0.0,-0.002179700881242752,-0.13408388197422028,-0.13712551863864064,-0.010774033144116402,-0.01297631487250328,-0.0713265473023057,0.14905612356960773,0.04649000708013773,0.0,-0.04630471393465996,-0.03814498892542313,0.07419830982540887,0.0015339807878858025,-0.012271846303085088,-0.027611654181941336,-0.1610679827279924,-0.16260196351587775,0.006940410853633505,-0.0008058512405691304,-0.06712018158548488,0.13111922359455222,0.018578211764392796,-0.002692988494288291,-0.029350165741545073
23.36805517100015,0.0,0.0,-0.16907877128695067,0.00545415391248228,-0.20725784867432664,-0.06119327669687419,-0.03671596601812451,-0.9974504101590492,1.0,1.0,-0.037464620312675834,0.1063139047473669,0.005896362708881497,0.0,-0.005635052919387817,-0.1306978091597557,-0.1479158028960228,-0.0026090024039149284,-0.0034932482521981,-0.06884012464433908,0.15187325701117516,0.040527948178350925,0.0,-0.04638092592358589,-0.03814498892542313,0.07419830982540887,0.0015339807878858025,-0.012271846303085088,-0.026077673394055978,-0.1610679827279924,-0.16260196351587775,0.0038724492778623443,-0.0008058512405691304,-0.06865416237337069,0.13111922359455222,0.021646173340163957,-0.002692988494288291,-0.029350165741545073
23.38794994800014,0.0,0.0,-0.1636246173744684,0.003272492347489368,-0.08944812416470939,-0.06120394110986209,-0.031622036240095415,-0.9976242400907521,1.0,1.0,-0.041530700167641044,0.10647828318178654,0.0052317786030471325,0.0,-0.0032699517905712128,-0.12968359887599945,-0.14870356023311615,-0.0027449512854218483,-0.006446525454521179,-0.07138838712126017,0.15146894939243793,0.04454279039055109,0.0,-0.04522710759192705,-0.03814498892542313,0.07419830982540887,0.003067961575771161,-0.012271846303085088,-0.024543692606170175,-0.1610679827279924,-0.16260196351587775,-0.0007294930857946191,-0.0008058512405691304,-0.06865416237337069,0.13111922359455222,0.024714134915935118,-0.002692988494288291,-0.029350165741545073
23.407991797000022,0.0,0.0,-0.16035212502697901,0.020725784867432664,-0.022907446432425576,-0.06120588358817757,-0.030602941794088786,-0.9976559024872944,1.0,1.0,-0.04009161680005491,0.10704943630844355,0.004977934528142214,0.0,-0.0050629302859306335,-0.12911822646856308,-0.14814099948853254,-0.003697986714541912,-0.0068253641948103905,-0.07039924059063196,0.15173606388270855,0.046221175231039524,0.0,-0.04745982773602009,-0.03814498892542313,0.07419830982540887,0.004601942363656963,-0.010737865515199285,-0.024543692606170175,-0.1610679827279924,-0.15953400194010658,-0.00379745466156578,-0.0008058512405691304,-0.06865416237337069,0.13111922359455222,0.027782096491706723,-0.002692988494288291,-0.029350165741545073
23.428660377000142,0.0,0.0,-0.16035212502697901,0.020725784867432664,-0.022907446432425576,-0.06120588358817757,-0.030602941794088786,-0.9976559024872944,1.0,1.0,-0.04093963070772588,0.10780731867998838,0.004233826883137226,0.0,-0.0042752549052238464,-0.1284637376666069,-0.14682178106158972,-0.002000140957534313,-0.010216895490884781,-0.07271929923444986,0.15191658213734627,0.0495517747476697,0.0,-0.04968160763382912,-0.03814498892542313,0.07573229061329467,0.004601942363656963,-0.010737865515199285,-0.024543692606170175,-0.1610679827279924,-0.15800002115222123,-0.00379745466156578,-0.002339832028454933,-0.07018814316125649,0.13418718517032338,0.02931607727959208,-0.002692988494288291,-0.029350165741545073
23.44822999300004,0.0,0.0,-0.12871803233458182,-0.003272492347489368,-0.06435901616729091,-0.06121301821019175,-0.026525641224416426,-0.9977721968261254,1.0,1.0,-0.04012108012102544,0.10645720735192299,0.0023867329582571983,0.0,-0.004321768879890442,-0.12928780168294907,-0.14803094416856766,-0.003421441651880741,-0.009734722785651684,-0.07101876381784678,0.15116395615041256,0.050915625877678394,0.0,-0.05151842720806599,-0.03814498892542313,0.07726627140118003,0.004601942363656963,-0.010737865515199285,-0.024543692606170175,-0.1610679827279924,-0.15800002115222123,-0.00379745466156578,-0.0038738128163407354,-0.07172212394914185,0.13725514674609454,0.030850058067477884,-0.002692988494288291,-0.029350165741545073
23.468206990999988,0.0,0.0,-0.09381144729469522,-0.008726646259971648,-0.18653206380689397,-0.06121620411494989,-0.024486481645979958,-0.9978241270736832,1.0,1.0,-0.035979887237772346,0.10915714036673307,0.0060242225881665945,0.0,-0.0021609924733638763,-0.12716037780046463,-0.15100220404565334,-0.002782590687274933,-0.006988140754401684,-0.0683695012703538,0.15424713864922523,0.053231910802423954,0.0,-0.051426708698272705,-0.03814498892542313,0.07726627140118003,0.004601942363656963,-0.009203884727313927,-0.024543692606170175,-0.1610679827279924,-0.15800002115222123,-0.00379745466156578,-0.0038738128163407354,-0.07172212394914185,0.14032310832186615,0.03238403885536369,-0.002692988494288291,-0.029350165741545073
23.488697537000007,0.0,0.0,-0.1090830782496456,-0.020725784867432664,-0.04581489286485115,-0.06122050587554794,-0.02142717705644178,-0.9978942457714314,1.0,1.0,-0.04125677957199514,0.10939996875822544,0.001423938199877739,0.0,-0.0006225109100341797,-0.12950339168310165,-0.14580580778419971,-0.0017774673178792,-0.014669911935925484,-0.0728124612942338,0.15222329832613468,0.06110658589750528,0.0,-0.05546281114220619,-0.03814498892542313,0.07880025218906583,0.004601942363656963,-0.009203884727313927,-0.023009711818284817,-0.1610679827279924,-0.15800002115222123,-0.00379745466156578,-0.0038738128163407354,-0.07172212394914185,0.14032310832186615,0.03545200043113485,-0.002692988494288291,-0.029350165741545073
23.50852546300007,0.0,0.0,-0.10581058590215622,-0.022907446432425576,0.0,-0.06122181251571845,-0.020407270838572817,-0.9979155440062107,1.0,1.0,-0.038797778775915504,0.10756334755569696,0.0027397116646170616,0.0,-0.000808320939540863,-0.13035742938518524,-0.14732292806729674,-0.00041363202035427094,-0.01285322941839695,-0.06984178069978952,0.15422877669334412,0.06158936116844416,0.0,-0.054419029504060745,-0.03814498892542313,0.07880025218906583,0.006135923151542766,-0.009203884727313927,-0.021475731030399015,-0.1610679827279924,-0.15800002115222123,-0.00379745466156578,-0.0038738128163407354,-0.07172212394914185,0.14032310832186615,0.03698598121902065,-0.002692988494288291,-0.029350165741545073
23.52841775800016,0.0,0.0,-0.09708393964218458,-0.015271630954950384,-0.02399827721492203,-0.062241852045534236,-0.017346089914329215,-0.9979103491890571,1.0,1.0,-0.03718720539472997,0.11121644545346498,0.0015474501997232437,0.0,-0.004513658583164215,-0.1289195641875267,-0.146740747615695,-0.0007245512679219246,-0.01138511672616005,-0.06866508070379496,0.15523894503712654,0.06246604863554239,0.0,-0.05561298877000809,-0.03814498892542313,0.081868213764837,0.006135923151542766,-0.009203884727313927,-0.019941750242513212,-0.1610679827279924,-0.15800002115222123,-0.00379745466156578,-0.0038738128163407354,-0.07172212394914185,0.14032310832186615,0.03851996200690601,-0.002692988494288291,-0.029350165741545073
23.548746455000128,0.0,0.0,-0.09708393964218458,-0.015271630954950384,-0.02399827721492203,-0.062241852045534236,-0.017346089914329215,-0.9979103491890571,1.0,1.0,-0.03749439283274114,0.11078603565692902,0.0029221447184681892,0.0,-0.0027068741619586945,-0.12970636785030365,-0.14705790020525455,0.00044605787843465805,-0.012014394626021385,-0.07000915799289942,0.15492894873023033,0.06410303059965372,0.0,-0.05685708671808243,-0.03814498892542313,0.0834021945527228,0.006135923151542766,-0.009203884727313927,-0.018407769454627854,-0.1610679827279924,-0.15800002115222123,-0.0022634738736799775,-0.0038738128163407354,-0.07172212394914185,0.14032310832186615,0.04158792358267717,-0.002692988494288291,-0.030884146529430875
23.568650325000135,0.0,0.0,-0.038179077387375956,-0.030543261909900768,0.038179077387375956,-0.06325924659312623,-0.016324966862742256,-0.9978635994851203,1.0,1.0,-0.03574162139557302,0.10920244362205267,0.005795167991891503,0.0,-0.0031066611409187317,-0.13171063363552094,-0.15220686048269272,0.006531388498842716,-0.010162409394979477,-0.06945532653480768,0.15525085106492043,0.06157796550542116,0.0,-0.05552869476377964,-0.03814498892542313,0.0834021945527228,0.006135923151542766,-0.009203884727313927,-0.018407769454627854,-0.1610679827279924,-0.15800002115222123,0.0008044877020911834,-0.0038738128163407354,-0.07172212394914185,0.14032310832186615,0.04312190437056297,-0.002692988494288291,-0.03241812731731668
23.588727580000068,0.0,0.0,-0.04581489286485115,-0.015271630954950384,-0.037088246604879506,-0.06326122233528585,-0.014284792140225837,-0.9978947652243476,1.0,1.0,-0.0379837395157665,0.11256754957139492,0.002630197908729315,0.0,-0.0035897046327590942,-0.12843279540538788,-0.14897167682647705,0.004447680898010731,-0.013395242393016815,-0.07097662333399057,0.15552673488855362,0.06610928568989038,0.0,-0.057400332763791084,-0.03814498892542313,0.0834021945527228,0.006135923151542766,-0.009203884727313927,-0.018407769454627854,-0.1610679827279924,-0.15800002115222123,0.0008044877020911834,-0.0038738128163407354,-0.07172212394914185,0.14032310832186615,0.04618986594633413,-0.002692988494288291,-0.03241812731731668
23.608829131999983,0.0,0.0,-0.017453292519943295,0.002181661564992912,-0.07090400086226964,-0.06326122233528585,-0.014284792140225837,-0.9978947652243476,1.0,1.0,-0.03414146392606199,0.11348575539886951,0.005890287458896637,0.0,-0.0043913833796978,-0.12851890921592712,-0.15148047916591167,0.003824426792562008,-0.010184675455093384,-0.06877198908478022,0.15590392798185349,0.0628881985321641,0.0,-0.05824841745197773,-0.03814498892542313,0.08493617534060816,0.006135923151542766,-0.009203884727313927,-0.018407769454627854,-0.1610679827279924,-0.15800002115222123,0.0008044877020911834,-0.0038738128163407354,-0.07172212394914185,0.14032310832186615,0.04618986594633413,-0.002692988494288291,-0.03241812731731668
23.62895262799998,0.0,0.0,-0.017453292519943295,0.002181661564992912,-0.07090400086226964,-0.06326122233528585,-0.014284792140225837,-0.9978947652243476,1.0,1.0,-0.034375464310869575,0.11155600566416979,0.0071760882856324315,0.0,-0.004878472536802292,-0.1278850957751274,-0.15371480211615562,0.004862886853516102,-0.0074540129862725735,-0.067976632155478,0.15572525933384895,0.059447371400892735,0.0,-0.05599808879196644,-0.03814498892542313,0.08493617534060816,0.006135923151542766,-0.009203884727313927,-0.018407769454627854,-0.1610679827279924,-0.15800002115222123,0.0008044877020911834,-0.0038738128163407354,-0.07172212394914185,0.14032310832186615,0.04618986594633413,-0.002692988494288291,-0.033952108105202036
23.649030662000087,0.0,0.0,0.015271630954950384,-0.003272492347489368,-0.002181661564992912,-0.06326026737012785,-0.015304903395998675,-0.9978797014191135,1.0,1.0,-0.03556918888352811,0.11169364675879478,0.008113907650113106,0.0,-0.005499199032783508,-0.1268157958984375,-0.15613636188209057,0.008680720813572407,-0.005649404600262642,-0.06907707545906305,0.15601367503404617,0.057995003648102283,0.0,-0.05151192098855972,-0.03814498892542313,0.08493617534060816,0.006135923151542766,-0.009203884727313927,-0.018407769454627854,-0.1610679827279924,-0.15800002115222123,0.0008044877020911834,-0.0038738128163407354,-0.07172212394914185,0.14032310832186615,0.04618986594633413,-0.002692988494288291,-0.03548608889308784
23.669067548000157,0.0,0.0,0.01090830782496456,-0.007635815477475192,-0.05235987755982989,-0.06326026737012785,-0.015304903395998675,-0.9978797014191135,1.0,1.0,-0.03394929110072553,0.1110109044238925,0.009023887803778052,0.0,-0.007347926497459412,-0.1258617863059044,-0.15825378149747849,0.0075411731377244,-0.0043302662670612335,-0.06944502983242273,0.1561119146645069,0.05386748258024454,0.0,-0.0534165371209383,-0.03814498892542313,0.08647015612849396,0.006135923151542766,-0.009203884727313927,-0.018407769454627854,-0.1610679827279924,-0.15800002115222123,0.0008044877020911834,-0.0038738128163407354,-0.07172212394914185,0.14032310832186615,0.04618986594633413,-0.002692988494288291,-0.03702006968097364
23.689151821999985,0.0,0.0,0.04690572364734761,-0.009817477042468103,-0.030543261909900768,-0.06325924659312623,-0.016324966862742256,-0.9978635994851203,1.0,1.0,-0.03331132396124303,0.1097154077142477,0.011789406882598996,0.0,-0.008150767534971237,-0.1264880746603012,-0.16295164451003075,0.01153531577438116,-0.0011067688465118408,-0.07030359748750925,0.1568381004035473,0.05045770946890116,0.0,-0.050515882670879364,-0.03814498892542313,0.08800413691637976,0.006135923151542766,-0.009203884727313927,-0.018407769454627854,-0.1610679827279924,-0.15800002115222123,0.0008044877020911834,-0.0038738128163407354,-0.07172212394914185,0.14032310832186615,0.04618986594633413,-0.002692988494288291,-0.038554050468859
23.709198262999962,0.0,0.0,0.061086523819801536,-0.006544984694978736,-0.05781403147231216,-0.0632581600138411,-0.017344979358633855,-0.997846459573171,1.0,1.0,-0.032423304161056876,0.10945791099220514,0.012992828153073788,0.0,-0.009472765028476715,-0.12457982450723648,-0.1656624600291252,0.01240923348814249,0.00120445154607296,-0.07098857406526804,0.15735423937439919,0.046707299537956715,0.0,-0.04951203428208828,-0.03814498892542313,0.08800413691637976,0.006135923151542766,-0.009203884727313927,-0.018407769454627854,-0.1610679827279924,-0.15800002115222123,0.0008044877020911834,-0.0038738128163407354,-0.07172212394914185,0.14032310832186615,0.04618986594633413,-0.002692988494288291,-0.038554050468859
23.729276464000122,0.0,0.0,0.0719948316447661,0.013089969389957472,-0.10035643198967395,-0.06325578948973734,-0.019384838714596925,-0.997809066467147,1.0,1.0,-0.031688706716522574,0.10992506053298712,0.01428346335887909,0.0,-0.011653810739517212,-0.12142234295606613,-0.1669058185070753,0.01310665626078844,0.0037402943708002567,-0.07181511167436838,0.15821007266640663,0.042939369566738605,0.0,-0.049125734716653824,-0.03814498892542313,0.08800413691637976,0.006135923151542766,-0.009203884727313927,-0.018407769454627854,-0.15953400194010658,-0.15800002115222123,0.0008044877020911834,-0.0038738128163407354,-0.07172212394914185,0.14032310832186615,0.04618986594633413,-0.002692988494288291,-0.038554050468859
23.750437203000047,0.0,0.0,0.08726646259971647,0.007635815477475192,-0.07090400086226964,-0.0632531558865999,-0.021424456026106417,-0.9977675235015273,1.0,1.0,-0.031527010491117835,0.10878920648247004,0.01394767314195633,0.0,-0.013206277042627335,-0.1209118440747261,-0.16824671998620033,0.015833694487810135,0.005903900135308504,-0.07310912106186152,0.15854745730757713,0.03984240535646677,0.0,-0.04919729009270668,-0.03814498892542313,0.08800413691637976,0.004601942363656963,-0.010737865515199285,-0.018407769454627854,-0.15800002115222123,-0.15800002115222123,0.0008044877020911834,-0.0038738128163407354,-0.07172212394914185,0.14032310832186615,0.04618986594633413,-0.00422696928217365,-0.038554050468859
23.769486197000106,0.0,0.0,0.13308135546456762,0.004363323129985824,-0.061086523819801536,-0.06325174046082715,-0.022444165969970925,-0.9977451963014348,1.0,1.0,-0.029040632536634803,0.1103306794539094,0.016709117218852043,0.0,-0.012721262872219086,-0.12069303542375565,-0.1713733971118927,0.01842830330133438,0.01027529314160347,-0.07373494748026133,0.159135602414608,0.03738418873399496,0.0,-0.04917189106345177,-0.03814498892542313,0.08800413691637976,0.004601942363656963,-0.010737865515199285,-0.018407769454627854,-0.15800002115222123,-0.15800002115222123,0.0008044877020911834,-0.0038738128163407354,-0.07172212394914185,0.14032310832186615,0.04618986594633413,-0.005760950070059452,-0.038554050468859
23.78955621199998,0.0,0.0,0.0916297857297023,0.009817477042468103,-0.07417649320975901,-0.0632470998475088,-0.02550286284173742,-0.9976719943687679,1.0,1.0,-0.03236553235910833,0.10753765422850847,0.015866287052631378,0.0,-0.01271144300699234,-0.11971112340688705,-0.1725086998194456,0.016433563083410263,0.008792741224169731,-0.0744209373369813,0.15898382663726807,0.038170152343809605,0.0,-0.046804025769233704,-0.03814498892542313,0.08800413691637976,0.003067961575771161,-0.010737865515199285,-0.018407769454627854,-0.15800002115222123,-0.15800002115222123,0.0008044877020911834,-0.0038738128163407354,-0.07172212394914185,0.14032310832186615,0.04618986594633413,-0.005760950070059452,-0.0400880312567448
23.80956345000004,0.0,0.0,0.1090830782496456,0.011999138607461015,-0.06326818538479445,-0.0622293166625979,-0.02652397103651714,-0.9977093720659138,1.0,1.0,-0.03157217591069639,0.1088308822363615,0.01704617589712143,0.0,-0.012452632188796997,-0.1196388378739357,-0.17261323519051075,0.018894106149673462,0.008678745478391647,-0.07568792346864939,0.1595405414700508,0.037236680276691914,0.0,-0.0457290755584836,-0.03814498892542313,0.08800413691637976,0.003067961575771161,-0.010737865515199285,-0.018407769454627854,-0.15800002115222123,-0.15800002115222123,0.0008044877020911834,-0.0038738128163407354,-0.07172212394914185,0.14032310832186615,0.04618986594633413,-0.007294930857945255,-0.0400880312567448
23.829668984000136,0.0,0.0,0.10362892433716332,0.014180800172453928,-0.050178215994836975,-0.06222397442195432,-0.029581889479289757,-0.9976237210601856,1.0,1.0,-0.03125762357376516,0.10657379496842623,0.016986985690891743,0.0,-0.014464180916547775,-0.11973965167999268,-0.17508532106876373,0.01874193176627159,0.01136813499033451,-0.07523805741220713,0.15970304608345032,0.03493211138993502,0.0,-0.04593427013605833,-0.03814498892542313,0.08800413691637976,0.003067961575771161,-0.010737865515199285,-0.018407769454627854,-0.15800002115222123,-0.15953400194010658,0.0008044877020911834,-0.002339832028454933,-0.07172212394914185,0.14032310832186615,0.044655885158448774,-0.007294930857945255,-0.0400880312567448
23.849870534000047,0.0,0.0,0.10362892433716332,0.014180800172453928,-0.050178215994836975,-0.06222397442195432,-0.029581889479289757,-0.9976237210601856,1.0,1.0,-0.03232024400494993,0.10647069849073887,0.017362101934850216,0.0,-0.014221787452697754,-0.12086092680692673,-0.17612172663211823,0.01946856826543808,0.010161131620407104,-0.076608263887465,0.1606190763413906,0.03503070678561926,0.0,-0.04276117868721485,-0.03814498892542313,0.08800413691637976,0.003067961575771161,-0.010737865515199285,-0.018407769454627854,-0.15800002115222123,-0.16260196351587775,0.002338468489976986,-0.002339832028454933,-0.07172212394914185,0.14032310832186615,0.04312190437056297,-0.007294930857945255,-0.041622012044630605
23.86984482799994,0.0,0.0,0.07744898555724837,0.008726646259971648,-0.00545415391248228,-0.062220090020091365,-0.031620045747915285,-0.9975614432729402,1.0,1.0,-0.03493259265087545,0.10535254143178463,0.014833363704383373,0.0,-0.014117591083049774,-0.12020250409841537,-0.17487938702106476,0.020249705761671066,0.008212275803089142,-0.07850356493145227,0.15949713066220284,0.03581770043820143,0.0,-0.040550642646849155,-0.03814498892542313,0.08800413691637976,0.003067961575771161,-0.010737865515199285,-0.018407769454627854,-0.15800002115222123,-0.16413594430376355,0.0038724492778623443,-0.002339832028454933,-0.07172212394914185,0.14032310832186615,0.04158792358267717,-0.007294930857945255,-0.041622012044630605
23.889902010000014,0.0,0.0,0.10471975511965978,0.006544984694978736,-0.02181661564992912,-0.06221377941831493,-0.034676532790536195,-0.9974602667395409,1.0,1.0,-0.031585311284288764,0.10454492643475533,0.016354075632989407,0.0,-0.01595255732536316,-0.12134143710136414,-0.17912223190069199,0.023090563714504242,0.012377224862575531,-0.07758730743080378,0.1612507551908493,0.032040261663496494,0.0,-0.04018282704055309,-0.03814498892542313,0.08800413691637976,0.0015339807878858025,-0.010737865515199285,-0.018407769454627854,-0.15800002115222123,-0.1672039058795347,0.005406430065748147,-0.002339832028454933,-0.07172212394914185,0.14032310832186615,0.04005394279479181,-0.007294930857945255,-0.041622012044630605
23.90996798900005,0.0,0.0,0.09381144729469522,-0.00545415391248228,-0.01090830782496456,-0.062211546896028716,-0.035695149858377136,-0.9974244731855095,1.0,1.0,-0.034118169685825706,0.10513703897595406,0.01648952066898346,0.0,-0.014390785247087479,-0.12133906036615372,-0.1789734773337841,0.02321849763393402,0.01041889376938343,-0.0797542268410325,0.1607825942337513,0.03339958656579256,0.0,-0.03752368688583374,-0.03814498892542313,0.08800413691637976,0.0015339807878858025,-0.010737865515199285,-0.018407769454627854,-0.15800002115222123,-0.1687378866674205,0.006940410853633505,-0.002339832028454933,-0.07172212394914185,0.14032310832186615,0.04005394279479181,-0.007294930857945255,-0.041622012044630605
23.93041347999997,0.0,0.0,0.04363323129985824,-0.008726646259971648,0.014180800172453928,-0.062206888493154575,-0.03773204711879868,-0.9973497860050028,1.0,1.0,-0.0368943193461746,0.10337558202445507,0.012957114726305008,0.0,-0.015259720385074615,-0.12193187326192856,-0.17565404623746872,0.020173970609903336,0.006525288801640272,-0.08028443995863199,0.15926536545157433,0.03476574178785086,0.0,-0.03968876600265503,-0.03814498892542313,0.08800413691637976,0.0015339807878858025,-0.010737865515199285,-0.018407769454627854,-0.15800002115222123,-0.1702718674553063,0.008474391641519308,-0.002339832028454933,-0.07172212394914185,0.14032310832186615,0.04005394279479181,-0.007294930857945255,-0.041622012044630605
23.95012785200015,0.0,0.0,0.039269908169872414,0.001090830782496456,0.011999138607461015,-0.06220446265607283,-0.038750320998865044,-0.9973108930760529,1.0,1.0,-0.037778993835672736,0.10409289225935936,0.013330652378499508,0.0,-0.014142230153083801,-0.12389899045228958,-0.17446165904402733,0.01941157504916191,0.005154341924935579,-0.08085925970226526,0.15895375609397888,0.03573635872453451,0.0,-0.03869672119617462,-0.03967896971330849,0.08800413691637976,0.0015339807878858025,-0.010737865515199285,-0.018407769454627854,-0.15800002115222123,-0.17180584824319167,0.01000837242940511,-0.002339832028454933,-0.07172212394914185,0.14032310832186615,0.03851996200690601,-0.008828911645830613,-0.041622012044630605
23.970245217999945,0.0,0.0,0.05890486225480862,0.002181661564992912,0.025089107997418487,-0.06220446265607283,-0.038750320998865044,-0.9973108930760529,1.0,1.0,-0.035245334496721625,0.10371115617454052,0.013871571980416775,0.0,-0.015466060489416122,-0.12353312969207764,-0.17598643153905869,0.021840490400791168,0.007841790094971657,-0.07986704353243113,0.1584354154765606,0.03303975146263838,0.0,-0.039936210960149765,-0.03967896971330849,0.08800413691637976,0.0015339807878858025,-0.010737865515199285,-0.018407769454627854,-0.15800002115222123,-0.17180584824319167,0.011542353217290469,-0.002339832028454933,-0.07172212394914185,0.14032310832186615,0.03698598121902065,-0.008828911645830613,-0.041622012044630605
23.990365177000058,0.0,0.0,0.08617563181722002,0.003272492347489368,0.013089969389957472,-0.06124330440481109,-0.041849591343287584,-0.9972451400583406,1.0,1.0,-0.03369958861730993,0.10269351303577423,0.015520147047936916,0.0,-0.01768520474433899,-0.12291509658098221,-0.1804209016263485,0.026678021997213364,0.0124021265655756,-0.07987320516258478,0.1611015535891056,0.0299013564363122,0.0,-0.03806122951209545,-0.03967896971330849,0.08800413691637976,0.0015339807878858025,-0.012271846303085088,-0.019941750242513212,-0.15800002115222123,-0.17180584824319167,0.013076334005176271,-0.002339832028454933,-0.07172212394914185,0.14032310832186615,0.03698598121902065,-0.008828911645830613,-0.04315599283251596
24.01043315600009,0.0,0.0,0.08508480103472356,0.003272492347489368,0.016362461737446838,-0.06124330440481109,-0.041849591343287584,-0.9972451400583406,1.0,1.0,-0.034953774651512504,0.10473315231502056,0.015413357876241207,0.0,-0.017134010791778564,-0.12339585274457932,-0.1796031966805458,0.02532089501619339,0.01060892827808857,-0.08159323129802942,0.16041242331266403,0.03170179482549429,0.0,-0.03892929293215275,-0.03967896971330849,0.08800413691637976,0.0015339807878858025,-0.012271846303085088,-0.019941750242513212,-0.15800002115222123,-0.17180584824319167,0.013076334005176271,-0.002339832028454933,-0.07172212394914185,0.1418570891097515,0.03698598121902065,-0.008828911645830613,-0.044689973620401766
24.030635984000128,0.0,0.0,0.04254240051736178,0.02181661564992912,0.022907446432425576,-0.061240656555439484,-0.04286845958880764,-0.9972020242444063,1.0,1.0,-0.03928977786563337,0.1028484608978033,0.014300888404250145,0.0,-0.015015475451946259,-0.1234629675745964,-0.17513439804315567,0.020204856991767883,0.005901683587580919,-0.08198609296232462,0.15751457959413528,0.03311470989137888,0.0,-0.03973006457090378,-0.03967896971330849,0.08800413691637976,0.0015339807878858025,-0.012271846303085088,-0.019941750242513212,-0.15800002115222123,-0.17180584824319167,0.013076334005176271,-0.002339832028454933,-0.07172212394914185,0.1433910698976373,0.03698598121902065,-0.008828911645830613,-0.046223954408287124
24.050658740000017,0.0,0.0,0.04254240051736178,0.02181661564992912,0.022907446432425576,-0.061240656555439484,-0.04286845958880764,-0.9972020242444063,1.0,1.0,-0.036690750857815146,0.1029379591345787,0.015089900232851505,0.0,-0.016893453896045685,-0.12413080781698227,-0.175082515925169,0.02238604798913002,0.008131569251418114,-0.07990878168493509,0.15927834436297417,0.03357233013957739,0.0,-0.04077421687543392,-0.03967896971330849,0.08800413691637976,0.0015339807878858025,-0.012271846303085088,-0.019941750242513212,-0.15800002115222123,-0.17333982903107747,0.013076334005176271,-0.0008058512405691304,-0.07172212394914185,0.1449250506855231,0.03698598121902065,-0.008828911645830613,-0.047757935196172926
24.070627016000117,0.0,0.0,0.06544984694978735,0.011999138607461015,0.0,-0.060218316507389055,-0.04490857502245964,-0.9971744953850696,1.0,1.0,-0.03731916635297239,0.10237237997353077,0.01570750679820776,0.0,-0.01660117506980896,-0.12454827129840851,-0.17608200386166573,0.022464614361524582,0.00930773839354515,-0.08037837687879801,0.1593780405819416,0.03304255288094282,0.0,-0.04024341516196728,-0.03967896971330849,0.08800413691637976,0.0015339807878858025,-0.012271846303085088,-0.019941750242513212,-0.15800002115222123,-0.17333982903107747,0.013076334005176271,0.000728129547316228,-0.07172212394914185,0.14799301226129427,0.03698598121902065,-0.008828911645830613,-0.047757935196172926
24.090917380000064,0.0,0.0,0.06544984694978735,0.011999138607461015,0.0,-0.060218316507389055,-0.04490857502245964,-0.9971744953850696,1.0,1.0,-0.03982983320020139,0.1014360748231411,0.01426099706441164,0.0,-0.015233196318149567,-0.1250782012939453,-0.17435548827052116,0.019117269665002823,0.005960699636489153,-0.08124263677746058,0.15875981375575066,0.03424370754510164,0.0,-0.040075648576021194,-0.03967896971330849,0.08800413691637976,0.0015339807878858025,-0.012271846303085088,-0.019941750242513212,-0.15800002115222123,-0.17333982903107747,0.013076334005176271,0.000728129547316228,-0.07172212394914185,0.14799301226129427,0.03698598121902065,-0.008828911645830613,-0.047757935196172926
24.110813935000124,0.0,0.0,0.011999138607461015,0.019634954084936207,0.014180800172453928,-0.0591985304418225,-0.04592989430831056,-0.9971890386493204,1.0,1.0,-0.04025510116480291,0.10220469161868095,0.012772569432854652,0.0,-0.015551000833511353,-0.12444475293159485,-0.17078600823879242,0.018434878438711166,0.0045212083496153355,-0.08200748357921839,0.15736713260412216,0.03476004768162966,0.0,-0.04226540494710207,-0.03967896971330849,0.08800413691637976,0.0015339807878858025,-0.012271846303085088,-0.019941750242513212,-0.15800002115222123,-0.17333982903107747,0.013076334005176271,0.000728129547316228,-0.07172212394914185,0.14799301226129427,0.03698598121902065,-0.008828911645830613,-0.047757935196172926
24.130861728000127,0.0,0.0,0.039269908169872414,-0.016362461737446838,-0.04581489286485115,-0.06021267151650019,-0.046945472707779816,-0.9970810181630625,1.0,1.0,-0.035949637880548835,0.10190136544406414,0.01608178485184908,0.0,-0.017544694244861603,-0.1253747195005417,-0.17604367807507515,0.021130390465259552,0.01035759225487709,-0.07840453181415796,0.16064031422138214,0.033631314523518085,0.0,-0.04069965984672308,-0.03967896971330849,0.08800413691637976,0.0015339807878858025,-0.012271846303085088,-0.019941750242513212,-0.15800002115222123,-0.17333982903107747,0.013076334005176271,0.000728129547316228,-0.07172212394914185,0.14799301226129427,0.03698598121902065,-0.008828911645830613,-0.04929191598405873
24.151031279000108,0.0,0.0,0.039269908169872414,-0.016362461737446838,-0.04581489286485115,-0.06021267151650019,-0.046945472707779816,-0.9970810181630625,1.0,1.0,-0.037413751473650336,0.10213072039186954,0.015941188670694828,0.0,-0.01743219792842865,-0.12409462034702301,-0.17679718509316444,0.02155100554227829,0.01034141518175602,-0.0795905152335763,0.15995820984244347,0.03316972125321627,0.0,-0.039340540766716,-0.03967896971330849,0.08800413691637976,0.0015339807878858025,-0.012271846303085088,-0.019941750242513212,-0.15800002115222123,-0.17333982903107747,0.013076334005176271,0.000728129547316228,-0.07172212394914185,0.14799301226129427,0.03698598121902065,-0.008828911645830613,-0.04929191598405873
24.170980203,0.0,0.0,0.008726646259971648,0.009817477042468103,0.002181661564992912,-0.06020975555980369,-0.047963703581538536,-0.9970327318970882,1.0,1.0,-0.03929883777163923,0.1017592754215002,0.013939976692199707,0.0,-0.01725183054804802,-0.12374751269817352,-0.17381589114665985,0.020312286913394928,0.007097335997968912,-0.08153989259153605,0.15886427089571953,0.03358439635485411,0.0,-0.04127892293035984,-0.03967896971330849,0.08800413691637976,0.0015339807878858025,-0.012271846303085088,-0.019941750242513212,-0.15800002115222123,-0.17333982903107747,0.013076334005176271,0.000728129547316228,-0.07172212394914185,0.14799301226129427,0.03698598121902065,-0.008828911645830613,-0.04929191598405873
24.191046459000063,0.0,0.0,0.03381575425739013,0.003272492347489368,-0.013089969389957472,-0.06020975555980369,-0.047963703581538536,-0.9970327318970882,1.0,1.0,-0.03696789010427892,0.10190743394196033,0.015652122907340527,0.0,-0.017639674246311188,-0.12447291612625122,-0.1759079433977604,0.021723728626966476,0.009456401690840721,-0.08115498814731836,0.1599857583642006,0.03282743785530329,0.0,-0.04071312677115202,-0.03967896971330849,0.08800413691637976,0.0015339807878858025,-0.012271846303085088,-0.019941750242513212,-0.15800002115222123,-0.17333982903107747,0.013076334005176271,0.000728129547316228,-0.07325610473702765,0.14799301226129427,0.03698598121902065,-0.008828911645830613,-0.04929191598405873
24.211105623000094,0.0,0.0,0.025089107997418487,0.006544984694978736,-0.02399827721492203,-0.06020975555980369,-0.047963703581538536,-0.9970327318970882,1.0,1.0,-0.03801198466680944,0.10189348459243774,0.015621375292539597,0.0,-0.017437569797039032,-0.12418993562459946,-0.17559394240379333,0.020966187119483948,0.009029431268572807,-0.0812583277001977,0.1594284363090992,0.0330533804371953,0.0,-0.04095728602260351,-0.03967896971330849,0.08800413691637976,0.0015339807878858025,-0.012271846303085088,-0.019941750242513212,-0.15800002115222123,-0.17333982903107747,0.013076334005176271,0.000728129547316228,-0.07325610473702765,0.14799301226129427,0.03698598121902065,-0.008828911645830613,-0.05082589677194409
24.231180212000027,0.0,0.0,0.013089969389957472,0.013089969389957472,0.016362461737446838,-0.05918992929542215,-0.048984769072073504,-0.9970441538211627,1.0,1.0,-0.039617364993318915,0.10175828263163567,0.014679024927318096,0.0,-0.016800381243228912,-0.12411072850227356,-0.17406874895095825,0.020888496190309525,0.007499940227717161,-0.08269006852060556,0.1588910073041916,0.034070045687258244,0.0,-0.04013487324118614,-0.03967896971330849,0.08800413691637976,0.0015339807878858025,-0.012271846303085088,-0.019941750242513212,-0.15800002115222123,-0.17333982903107747,0.013076334005176271,0.000728129547316228,-0.07325610473702765,0.14799301226129427,0.03698598121902065,-0.008828911645830613,-0.05082589677194409
24.25122559800002,0.0,0.0,0.019634954084936207,0.006544984694978736,0.018544123302439753,-0.05918992929542215,-0.048984769072073504,-0.9970441538211627,1.0,1.0,-0.03831780864857137,0.10162168554961681,0.014749383553862572,0.0,-0.017584428191184998,-0.12470979243516922,-0.17476484924554825,0.021367210894823074,0.008016524836421013,-0.08213880751281977,0.1593978926539421,0.03351069148629904,0.0,-0.0410839794203639,-0.03967896971330849,0.08800413691637976,0.0015339807878858025,-0.012271846303085088,-0.019941750242513212,-0.15800002115222123,-0.17333982903107747,0.013076334005176271,0.000728129547316228,-0.07325610473702765,0.14799301226129427,0.03698598121902065,-0.008828911645830613,-0.05082589677194409
24.271306095,0.0,0.0,0.008726646259971648,0.0,0.003272492347489368,-0.05918992929542215,-0.048984769072073504,-0.9970441538211627,1.0,1.0,-0.03929485916160047,0.10164134576916695,0.014368144795298576,0.0,-0.01697113737463951,-0.1246206983923912,-0.1741149164736271,0.019991032779216766,0.0072575644589960575,-0.0823540398851037,0.15904450416564941,0.03401975426822901,0.0,-0.04065744299441576,-0.03967896971330849,0.08800413691637976,0.0015339807878858025,-0.012271846303085088,-0.019941750242513212,-0.15800002115222123,-0.17333982903107747,0.013076334005176271,0.000728129547316228,-0.07325610473702765,0.14799301226129427,0.03698598121902065,-0.008828911645830613,-0.05082589677194409
24.29240057700008,0.0,0.0,0.006544984694978736,-0.001090830782496456,0.018544123302439753,-0.05918992929542215,-0.048984769072073504,-0.9970441538211627,1.0,1.0,-0.03938323422335088,0.10161671787500381,0.013947616331279278,0.0,-0.016892537474632263,-0.12489224970340729,-0.17358888313174248,0.020162001252174377,0.0066319420002400875,-0.08254204038530588,0.15889713913202286,0.03450105991214514,0.0,-0.040945532731711864,-0.03967896971330849,0.08800413691637976,0.0015339807878858025,-0.012271846303085088,-0.019941750242513212,-0.15800002115222123,-0.17333982903107747,0.013076334005176271,0.000728129547316228,-0.07325610473702765,0.14799301226129427,0.03698598121902065,-0.008828911645830613,-0.05082589677194409
24.311841917000038,0.0,0.0,0.003272492347489368,-0.002181661564992912,0.014180800172453928,-0.05918992929542215,-0.048984769072073504,-0.9970441538211627,1.0,1.0,-0.03946968703530729,0.10164210200309753,0.013821536675095558,0.0,-0.01666221022605896,-0.12495250254869461,-0.1731940284371376,0.019637148827314377,0.006413636263459921,-0.08248008135706186,0.15883206576108932,0.034680516459047794,0.0,-0.04103477392345667,-0.03967896971330849,0.08800413691637976,0.0015339807878858025,-0.012271846303085088,-0.019941750242513212,-0.15800002115222123,-0.17333982903107747,0.013076334005176271,0.000728129547316228,-0.07325610473702765,0.14799301226129427,0.03698598121902065,-0.008828911645830613,-0.05082589677194409
24.331914747000155,0.0,0.0,0.003272492347489368,0.0,-0.008726646259971648,-0.05918992929542215,-0.048984769072073504,-0.9970441538211627,1.0,1.0,-0.03910554735921323,0.10165729746222496,0.014207056723535061,0.0,-0.01675736904144287,-0.12474847584962845,-0.1732356809079647,0.01926128938794136,0.007040791679173708,-0.08193290326744318,0.1588990055024624,0.03428212832659483,0.0,-0.041216835379600525,-0.03967896971330849,0.08800413691637976,0.0015339807878858025,-0.012271846303085088,-0.019941750242513212,-0.15800002115222123,-0.17333982903107747,0.013076334005176271,0.000728129547316228,-0.07325610473702765,0.14799301226129427,0.03698598121902065,-0.008828911645830613,-0.05082589677194409
24.35189600500007,0.0,0.0,0.006544984694978736,0.002181661564992912,-0.004363323129985824,-0.06804864003833143,-0.05631611589379153,-0.9960912998714377,1.0,1.0,-0.038652406772598624,0.0999771635979414,0.014159442856907845,0.0,-0.020518504083156586,-0.1260581687092781,-0.17524150758981705,0.020716603845357895,0.007674057502299547,-0.08156360033899546,0.15997625514864922,0.03195363748818636,0.0,-0.039632659405469894,-0.03967896971330849,0.08800413691637976,0.0015339807878858025,-0.012271846303085088,-0.019941750242513212,-0.15800002115222123,-0.17333982903107747,0.013076334005176271,0.000728129547316228,-0.07325610473702765,0.14799301226129427,0.03698598121902065,-0.008828911645830613,-0.05082589677194409
24.372010297000088,0.0,0.0,0.002181661564992912,0.003272492347489368,-0.013089969389957472,-0.05918992929542215,-0.048984769072073504,-0.9970441538211627,1.0,1.0,-0.039648173144087195,0.10186510160565376,0.014099851250648499,0.0,-0.016187448054552078,-0.1243508905172348,-0.173440869897604,0.018975187093019485,0.006802874151617289,-0.08285411540418863,0.15833500400185585,0.033834380097687244,0.0,-0.04068512562662363,-0.03967896971330849,0.08800413691637976,0.0015339807878858025,-0.012271846303085088,-0.019941750242513212,-0.15800002115222123,-0.17333982903107747,0.013076334005176271,0.000728129547316228,-0.07325610473702765,0.14799301226129427,0.03698598121902065,-0.008828911645830613,-0.05082589677194409
24.39209447999997,0.0,0.0,-0.004363323129985824,-0.001090830782496456,-0.014180800172453928,-0.05918992929542215,-0.048984769072073504,-0.9970441538211627,1.0,1.0,-0.03963650553487241,0.10146115906536579,0.013823852874338627,0.0,-0.01661357283592224,-0.12467725574970245,-0.17267672903835773,0.018651507794857025,0.00654595298692584,-0.08197240624576807,0.15863823145627975,0.034708757884800434,0.0,-0.0413822578266263,-0.03967896971330849,0.08800413691637976,0.0015339807878858025,-0.012271846303085088,-0.019941750242513212,-0.15800002115222123,-0.17333982903107747,0.013076334005176271,0.000728129547316228,-0.07325610473702765,0.14799301226129427,0.03698598121902065,-0.008828911645830613,-0.05082589677194409
24.412136996000072,0.0,0.0,-0.006544984694978736,-0.003272492347489368,-0.006544984694978736,-0.05918992929542215,-0.048984769072073504,-0.9970441538211627,1.0,1.0,-0.03981663822196424,0.10159583948552608,0.013571572490036488,0.0,-0.01633884757757187,-0.12499158829450607,-0.17224590852856636,0.01855570822954178,0.006055272649973631,-0.08226160798221827,0.15847278386354446,0.034961226396262646,0.0,-0.04132155887782574,-0.03967896971330849,0.08800413691637976,0.0015339807878858025,-0.012271846303085088,-0.019941750242513212,-0.15800002115222123,-0.17333982903107747,0.013076334005176271,0.000728129547316228,-0.07325610473702765,0.14799301226129427,0.03698598121902065,-0.008828911645830613,-0.05082589677194409
24.43219617800014,0.0,0.0,-0.009817477042468103,-0.01090830782496456,-0.003272492347489368,-0.05918992929542215,-0.048984769072073504,-0.9970441538211627,1.0,1.0,-0.04006736516021192,0.10154198855161667,0.013219927437603474,0.0,-0.016124729067087173,-0.12530335783958435,-0.1719303447753191,0.018177613615989685,0.005531929899007082,-0.08224283251911402,0.15842215716838837,0.035537575371563435,0.0,-0.041272507049143314,-0.03967896971330849,0.08800413691637976,0.0015339807878858025,-0.012271846303085088,-0.019941750242513212,-0.15800002115222123,-0.17333982903107747,0.013076334005176271,0.000728129547316228,-0.07325610473702765,0.14799301226129427,0.03698598121902065,-0.008828911645830613,-0.05082589677194409
24.45285272199999,0.0,0.0,-0.009817477042468103,-0.01090830782496456,-0.003272492347489368,-0.05918992929542215,-0.048984769072073504,-0.9970441538211627,1.0,1.0,-0.03992434754036367,0.1015968881547451,0.01318884827196598,0.0,-0.016076095402240753,-0.12532837688922882,-0.17179075442254543,0.018144086003303528,0.005511955823749304,-0.08218535874038935,0.1584286205470562,0.035554626025259495,0.0,-0.04140704870223999,-0.03967896971330849,0.08800413691637976,0.0015339807878858025,-0.012271846303085088,-0.019941750242513212,-0.15800002115222123,-0.17333982903107747,0.013076334005176271,0.000728129547316228,-0.07325610473702765,0.14799301226129427,0.03698598121902065,-0.008828911645830613,-0.05082589677194409
24.472305005999942,0.0,0.0,-0.007635815477475192,-0.006544984694978736,0.00545415391248228,-0.05918992929542215,-0.048984769072073504,-0.9970441538211627,1.0,1.0,-0.03986791311763227,0.101623160764575,0.0132299168035388,0.0,-0.016125939786434174,-0.12534496933221817,-0.1718098632991314,0.018577899783849716,0.005575945135205984,-0.08236094657331705,0.1584569476544857,0.035436668433249,0.0,-0.0414248276501894,-0.03967896971330849,0.08800413691637976,0.0015339807878858025,-0.012271846303085088,-0.019941750242513212,-0.15800002115222123,-0.17333982903107747,0.013076334005176271,0.000728129547316228,-0.07325610473702765,0.14799301226129427,0.03698598121902065,-0.008828911645830613,-0.05082589677194409
24.492390559000114,0.0,0.0,-0.01090830782496456,-0.003272492347489368,0.001090830782496456,-0.05918992929542215,-0.048984769072073504,-0.9970441538211627,1.0,1.0,-0.0400465817656368,0.10163903795182705,0.01317881140857935,0.0,-0.016043171286582947,-0.12520559132099152,-0.1714932806789875,0.018169179558753967,0.005441577639430761,-0.0823632413521409,0.15834040567278862,0.03541122656315565,0.0,-0.04154007509350777,-0.03967896971330849,0.08800413691637976,0.0015339807878858025,-0.012271846303085088,-0.019941750242513212,-0.15800002115222123,-0.17333982903107747,0.013076334005176271,0.000728129547316228,-0.07325610473702765,0.14799301226129427,0.03698598121902065,-0.008828911645830613,-0.05082589677194409
24.512665534000007,0.0,0.0,-0.008726646259971648,-0.002181661564992912,0.002181661564992912,-0.05918992929542215,-0.048984769072073504,-0.9970441538211627,1.0,1.0,-0.03986951871775091,0.10163691453635693,0.013315464369952679,0.0,-0.016131442040205002,-0.12528038769960403,-0.1716141737997532,0.018438443541526794,0.005630632396787405,-0.0822896221652627,0.15841620415449142,0.035333055071532726,0.0,-0.041541410610079765,-0.03967896971330849,0.08800413691637976,0.0015339807878858025,-0.012271846303085088,-0.019941750242513212,-0.15800002115222123,-0.17333982903107747,0.013076334005176271,0.000728129547316228,-0.07325610473702765,0.14799301226129427,0.03698598121902065,-0.008828911645830613,-0.05082589677194409
24.532659921999993,0.0,0.0,-0.01090830782496456,-0.001090830782496456,0.0,-0.05918992929542215,-0.048984769072073504,-0.9970441538211627,1.0,1.0,-0.04002926661632955,0.10164155997335911,0.013245056383311749,0.0,-0.016077086329460144,-0.12519939988851547,-0.17143828608095646,0.01821298524737358,0.005506355781108141,-0.08233396057039499,0.15833262726664543,0.03533549327403307,0.0,-0.04156866483390331,-0.03967896971330849,0.08800413691637976,0.0015339807878858025,-0.012271846303085088,-0.019941750242513212,-0.15800002115222123,-0.17333982903107747,0.013076334005176271,0.000728129547316228,-0.07325610473702765,0.14799301226129427,0.03698598121902065,-0.008828911645830613,-0.05082589677194409
24.552670827000156,0.0,0.0,-0.014180800172453928,-0.004363323129985824,-0.004363323129985824,-0.05918992929542215,-0.048984769072073504,-0.9970441538211627,1.0,1.0,-0.04019903554581106,0.10161527991294861,0.013102871365845203,0.0,-0.015954334288835526,-0.12528537213802338,-0.17119711264967918,0.01780117303133011,0.0052522276528179646,-0.0822494188323617,0.15825187414884567,0.0356031795963645,0.0,-0.04158772528171539,-0.03967896971330849,0.08800413691637976,0.0015339807878858025,-0.012271846303085088,-0.019941750242513212,-0.15800002115222123,-0.17333982903107747,0.013076334005176271,0.000728129547316228,-0.07325610473702765,0.14799301226129427,0.03698598121902065,-0.008828911645830613,-0.05082589677194409
24.572888914000032,0.0,0.0,-0.009817477042468103,-0.002181661564992912,-0.00545415391248228,-0.05918992929542215,-0.048984769072073504,-0.9970441538211627,1.0,1.0,-0.039781825384125113,0.10164977423846722,0.013376262038946152,0.0,-0.0161203071475029,-0.12525711208581924,-0.17149585112929344,0.018225114792585373,0.00571336830034852,-0.08210156206041574,0.15840942412614822,0.03529349062591791,0.0,-0.04163363575935364,-0.03967896971330849,0.08800413691637976,0.0015339807878858025,-0.012271846303085088,-0.019941750242513212,-0.15800002115222123,-0.17333982903107747,0.013076334005176271,0.000728129547316228,-0.07325610473702765,0.14799301226129427,0.03698598121902065,-0.008828911645830613,-0.05082589677194409
24.592917153000144,0.0,0.0,-0.01090830782496456,-0.002181661564992912,-0.006544984694978736,-0.05918992929542215,-0.048984769072073504,-0.9970441538211627,1.0,1.0,-0.03997259004972875,0.10162710584700108,0.01333867572247982,0.0,-0.01610402762889862,-0.1252058446407318,-0.17149959318339825,0.018133144825696945,0.005656679626554251,-0.08218146208673716,0.15836010873317719,0.03528339136391878,0.0,-0.04154134634882212,-0.03967896971330849,0.08800413691637976,0.0015339807878858025,-0.012271846303085088,-0.019941750242513212,-0.15800002115222123,-0.17333982903107747,0.013076334005176271,0.000728129547316228,-0.07325610473702765,0.14799301226129427,0.03698598121902065,-0.008828911645830613,-0.05082589677194409
24.612956132000136,0.0,0.0,-0.00545415391248228,-0.004363323129985824,-0.007635815477475192,-0.05918992929542215,-0.048984769072073504,-0.9970441538211627,1.0,1.0,-0.039567956468090415,0.10161403007805347,0.013625053688883781,0.0,-0.016309626400470734,-0.12526147812604904,-0.17207130417227745,0.018567949533462524,0.006146193947643042,-0.08198700938373804,0.15858368948101997,0.035065595991909504,0.0,-0.041421993635594845,-0.03967896971330849,0.08800413691637976,0.0015339807878858025,-0.012271846303085088,-0.019941750242513212,-0.15800002115222123,-0.17333982903107747,0.013076334005176271,0.000728129547316228,-0.07325610473702765,0.14799301226129427,0.03698598121902065,-0.008828911645830613,-0.05082589677194409
24.633235108000008,0.0,0.0,-0.007635815477475192,-0.001090830782496456,-0.007635815477475192,-0.05918992929542215,-0.048984769072073504,-0.9970441538211627,1.0,1.0,-0.0398031638469547,0.10163271240890026,0.013536815531551838,0.0,-0.016278952360153198,-0.12504193931818008,-0.17192772589623928,0.018437951803207397,0.006007905583828688,-0.08216874394565821,0.1584610939025879,0.03496758174151182,0.0,-0.04145296569913626,-0.03967896971330849,0.08800413691637976,0.0015339807878858025,-0.012271846303085088,-0.019941750242513212,-0.15800002115222123,-0.17333982903107747,0.013076334005176271,0.000728129547316228,-0.07325610473702765,0.14799301226129427,0.03698598121902065,-0.008828911645830613,-0.05082589677194409
24.653162587999986,0.0,0.0,-0.00545415391248228,-0.002181661564992912,-0.003272492347489368,-0.05918992929542215,-0.048984769072073504,-0.9970441538211627,1.0,1.0,-0.039692258229479194,0.10161182470619678,0.013596853241324425,0.0,-0.016337960958480835,-0.12516618520021439,-0.17211325652897358,0.018687888979911804,0.006076643709093332,-0.0821566367521882,0.15854724124073982,0.03501944150775671,0.0,-0.04139092192053795,-0.03967896971330849,0.08800413691637976,0.0015339807878858025,-0.012271846303085088,-0.019941750242513212,-0.15800002115222123,-0.17333982903107747,0.013076334005176271,0.000728129547316228,-0.07325610473702765,0.14799301226129427,0.03698598121902065,-0.008828911645830613,-0.05082589677194409
24.673194031000094,0.0,0.0,-0.001090830782496456,0.0,0.003272492347489368,-0.05918992929542215,-0.048984769072073504,-0.9970441538211627,1.0,1.0,-0.03946053399704397,0.10164221376180649,0.01374924648553133,0.0,-0.016483310610055923,-0.12512566894292831,-0.17245687171816826,0.01921556144952774,0.006352547090500593,-0.08224644605070353,0.1586705483496189,0.034766809083521366,0.0,-0.041335200890898705,-0.03967896971330849,0.08800413691637976,0.0015339807878858025,-0.012271846303085088,-0.019941750242513212,-0.15800002115222123,-0.17333982903107747,0.013076334005176271,0.000728129547316228,-0.07325610473702765,0.14799301226129427,0.03698598121902065,-0.008828911645830613,-0.05082589677194409
24.693329748999986,0.0,0.0,0.0,-0.001090830782496456,0.003272492347489368,-0.05918992929542215,-0.048984769072073504,-0.9970441538211627,1.0,1.0,-0.03947963728569448,0.10162508673965931,0.013804254122078419,0.0,-0.016532253473997116,-0.12509284168481827,-0.1726827546954155,0.019262146204710007,0.006439726334065199,-0.08225807640701532,0.15871938690543175,0.034716554917395115,0.0,-0.041212163865566254,-0.03967896971330849,0.08800413691637976,0.0015339807878858025,-0.012271846303085088,-0.019941750242513212,-0.15800002115222123,-0.17333982903107747,0.013076334005176271,0.000728129547316228,-0.07325610473702765,0.14799301226129427,0.03698598121902065,-0.008828911645830613,-0.05082589677194409
24.71334974699994,0.0,0.0,0.0,-0.002181661564992912,0.004363323129985824,-0.05918992929542215,-0.048984769072073504,-0.9970441538211627,1.0,1.0,-0.03951258002780378,0.101620152592659,0.013768322765827179,0.0,-0.016544554382562637,-0.12507672607898712,-0.17274069041013718,0.019271332770586014,0.0063877892680466175,-0.08228790108114481,0.1587158814072609,0.03475348558276892,0.0,-0.041183521039783955,-0.03967896971330849,0.08800413691637976,0.0015339807878858025,-0.012271846303085088,-0.019941750242513212,-0.15800002115222123,-0.17333982903107747,0.013076334005176271,0.000728129547316228,-0.07325610473702765,0.14799301226129427,0.03698598121902065,-0.008828911645830613,-0.05082589677194409
24.733427151000114,0.0,0.0,0.001090830782496456,0.0,0.003272492347489368,-0.05918992929542215,-0.048984769072073504,-0.9970441538211627,1.0,1.0,-0.0393890009727329,0.1016426719725132,0.013876124285161495,0.0,-0.016596656292676926,-0.12498685717582703,-0.1728186123073101,0.019361473619937897,0.006550278048962355,-0.08225143793970346,0.15875349938869476,0.03459922131150961,0.0,-0.0412340359762311,-0.03967896971330849,0.08800413691637976,0.0015339807878858025,-0.012271846303085088,-0.019941750242513212,-0.15800002115222123,-0.17333982903107747,0.013076334005176271,0.000728129547316228,-0.07325610473702765,0.14799301226129427,0.03698598121902065,-0.008828911645830613,-0.05082589677194409
24.753488870999945,0.0,0.0,0.003272492347489368,0.001090830782496456,0.002181661564992912,-0.05918992929542215,-0.048984769072073504,-0.9970441538211627,1.0,1.0,-0.03925875364802778,0.10163932293653488,0.014038173481822014,0.0,-0.016697581857442856,-0.12495197355747223,-0.17305197566747665,0.019567769020795822,0.006807474885135889,-0.08219984266906977,0.15883217006921768,0.034425836987793446,0.0,-0.04118102975189686,-0.03967896971330849,0.08800413691637976,0.0015339807878858025,-0.012271846303085088,-0.019941750242513212,-0.15800002115222123,-0.17333982903107747,0.013076334005176271,0.000728129547316228,-0.07325610473702765,0.14799301226129427,0.03698598121902065,-0.008828911645830613,-0.05082589677194409
24.773679477000087,0.0,0.0,0.008726646259971648,-0.001090830782496456,0.0,-0.05918992929542215,-0.048984769072073504,-0.9970441538211627,1.0,1.0,-0.038921857019886374,0.10162154026329517,0.014338662847876549,0.0,-0.01691613346338272,-0.12496169656515121,-0.17370065674185753,0.020005740225315094,0.007342900615185499,-0.08203540090471506,0.15905440598726273,0.03416019771248102,0.0,-0.040987176820635796,-0.03967896971330849,0.08800413691637976,0.0015339807878858025,-0.012271846303085088,-0.019941750242513212,-0.15800002115222123,-0.17333982903107747,0.013076334005176271,0.000728129547316228,-0.07325610473702765,0.14799301226129427,0.03698598121902065,-0.008828911645830613,-0.05082589677194409
24.79377019599997,0.0,0.0,0.00545415391248228,-0.001090830782496456,-0.003272492347489368,-0.05918992929542215,-0.048984769072073504,-0.9970441538211627,1.0,1.0,-0.0392218807246536,0.10161257348954678,0.01420024037361145,0.0,-0.016857251524925232,-0.12478005886077881,-0.17356598004698753,0.019669469445943832,0.007125217001885176,-0.0821428457275033,0.15892070904374123,0.03418707009404898,0.0,-0.04097449406981468,-0.03967896971330849,0.08800413691637976,0.0015339807878858025,-0.012271846303085088,-0.019941750242513212,-0.15800002115222123,-0.17333982903107747,0.013076334005176271,0.000728129547316228,-0.07325610473702765,0.14799301226129427,0.03698598121902065,-0.008828911645830613,-0.05082589677194409
24.81372291699995,0.0,0.0,0.008726646259971648,0.001090830782496456,-0.003272492347489368,-0.05918992929542215,-0.048984769072073504,-0.9970441538211627,1.0,1.0,-0.03891225322149694,0.10163052007555962,0.014422046020627022,0.0,-0.01698555424809456,-0.1247575581073761,-0.173808041960001,0.019991658627986908,0.00745931314304471,-0.0820263484492898,0.15904433652758598,0.033992587588727474,0.0,-0.04102553520351648,-0.03967896971330849,0.08800413691637976,0.0015339807878858025,-0.012271846303085088,-0.019941750242513212,-0.15800002115222123,-0.17333982903107747,0.013076334005176271,0.000728129547316228,-0.07325610473702765,0.14799301226129427,0.03698598121902065,-0.008828911645830613,-0.05082589677194409
24.83394831999999,0.0,0.0,0.00545415391248228,0.001090830782496456,0.0,-0.05918992929542215,-0.048984769072073504,-0.9970441538211627,1.0,1.0,-0.039274552604183555,0.10161308944225311,0.014196254312992096,0.0,-0.016871288418769836,-0.12474723160266876,-0.17354343459010124,0.019779033958911896,0.0070805721916258335,-0.08224123809486628,0.1588973104953766,0.03416977357119322,0.0,-0.04099016636610031,-0.03967896971330849,0.08800413691637976,0.0015339807878858025,-0.012271846303085088,-0.019941750242513212,-0.15800002115222123,-0.17333982903107747,0.013076334005176271,0.000728129547316228,-0.07325610473702765,0.14799301226129427,0.03698598121902065,-0.008828911645830613,-0.05082589677194409
24.853861911999957,0.0,0.0,0.008726646259971648,0.0,-0.001090830782496456,-0.05918992929542215,-0.048984769072073504,-0.9970441538211627,1.0,1.0,-0.038945181062445045,0.10162113234400749,0.014381791464984417,0.0,-0.0169733464717865,-0.1248130276799202,-0.17381551861763,0.019993998110294342,0.007382609415799379,-0.08205426577478647,0.15904950350522995,0.03407288994640112,0.0,-0.04098830744624138,-0.03967896971330849,0.08800413691637976,0.0015339807878858025,-0.012271846303085088,-0.019941750242513212,-0.15800002115222123,-0.17333982903107747,0.013076334005176271,0.000728129547316228,-0.07325610473702765,0.14799301226129427,0.03698598121902065,-0.008828911645830613,-0.05082589677194409
24.87399514899994,0.0,0.0,0.008726646259971648,0.0,0.002181661564992912,-0.05918992929542215,-0.048984769072073504,-0.9970441538211627,1.0,1.0,-0.039059666683897376,0.10162010788917542,0.014318760484457016,0.0,-0.01697021722793579,-0.12479342520236969,-0.17384865880012512,0.02009282261133194,0.007307935040444136,-0.08219627384096384,0.15902209654450417,0.0340741416439414,0.0,-0.04091552272439003,-0.03967896971330849,0.08800413691637976,0.0015339807878858025,-0.012271846303085088,-0.019941750242513212,-0.15800002115222123,-0.17333982903107747,0.013076334005176271,0.000728129547316228,-0.07325610473702765,0.14799301226129427,0.03698598121902065,-0.008828911645830613,-0.05082589677194409
24.894011813000134,0.0,0.0,0.006544984694978736,0.0,0.002181661564992912,-0.05918992929542215,-0.048984769072073504,-0.9970441538211627,1.0,1.0,-0.03919568448327482,0.10161919333040714,0.014204835519194603,0.0,-0.016892671585083008,-0.1247718408703804,-0.17364808171987534,0.019854191690683365,0.007097749505192041,-0.08223281148821115,0.1589462161064148,0.03419097792357206,0.0,-0.04097453411668539,-0.03967896971330849,0.08800413691637976,0.0015339807878858025,-0.012271846303085088,-0.019941750242513212,-0.15800002115222123,-0.17333982903107747,0.013076334005176271,0.000728129547316228,-0.07325610473702765,0.14799301226129427,0.03698598121902065,-0.008828911645830613,-0.05082589677194409
24.91406219999999,0.0,0.0,0.008726646259971648,0.003272492347489368,0.004363323129985824,-0.05918992929542215,-0.048984769072073504,-0.9970441538211627,1.0,1.0,-0.0389898584689945,0.10165129601955414,0.01433873362839222,0.0,-0.01696225255727768,-0.12475086748600006,-0.17371898144483566,0.020133912563323975,0.00729644438251853,-0.08221814874559641,0.15900828316807747,0.03402575384825468,0.0,-0.04105104971677065,-0.03967896971330849,0.08800413691637976,0.0015339807878858025,-0.012271846303085088,-0.019941750242513212,-0.15800002115222123,-0.17333982903107747,0.013076334005176271,0.000728129547316228,-0.07325610473702765,0.14799301226129427,0.03698598121902065,-0.008828911645830613,-0.05082589677194409
24.934199270000136,0.0,0.0,0.009817477042468103,0.001090830782496456,0.003272492347489368,-0.05918992929542215,-0.048984769072073504,-0.9970441538211627,1.0,1.0,-0.03898469894193113,0.10162380151450634,0.01439405046403408,0.0,-0.017002329230308533,-0.12480507045984268,-0.17391646280884743,0.020183436572551727,0.0073998854495584965,-0.08217630628496408,0.15906742587685585,0.034022037871181965,0.0,-0.04091303702443838,-0.03967896971330849,0.08800413691637976,0.0015339807878858025,-0.012271846303085088,-0.019941750242513212,-0.15800002115222123,-0.17333982903107747,0.013076334005176271,0.000728129547316228,-0.07325610473702765,0.14799301226129427,0.03698598121902065,-0.008828911645830613,-0.05082589677194409
24.954203156999938,0.0,0.0,0.006544984694978736,0.003272492347489368,0.0,-0.05918992929542215,-0.048984769072073504,-0.9970441538211627,1.0,1.0,-0.039157034596428275,0.10164151899516582,0.01428972277790308,0.0,-0.01692841202020645,-0.12464907765388489,-0.1736188307404518,0.019853681325912476,0.007208746392279863,-0.08221975807100534,0.158932663500309,0.03402240853756666,0.0,-0.041045970283448696,-0.03967896971330849,0.08800413691637976,0.0015339807878858025,-0.012271846303085088,-0.019941750242513212,-0.15800002115222123,-0.17333982903107747,0.013076334005176271,0.000728129547316228,-0.07325610473702765,0.14799301226129427,0.03698598121902065,-0.008828911645830613,-0.05082589677194409
24.974238488000083,0.0,0.0,0.003272492347489368,0.003272492347489368,0.0,-0.05918992929542215,-0.048984769072073504,-0.9970441538211627,1.0,1.0,-0.039356874069198966,0.101627042517066,0.014132956974208355,0.0,-0.016802549362182617,-0.12472005188465118,-0.1732577681541443,0.01957448199391365,0.0068995836190879345,-0.08224999997764826,0.15881893038749695,0.03425321634858847,0.0,-0.041123127564787865,-0.03967896971330849,0.08800413691637976,0.0015339807878858025,-0.012271846303085088,-0.019941750242513212,-0.15800002115222123,-0.17333982903107747,0.013076334005176271,0.000728129547316228,-0.07325610473702765,0.14799301226129427,0.03698598121902065,-0.008828911645830613,-0.05082589677194409
24.99444722399994,0.0,0.0,0.003272492347489368,0.003272492347489368,0.0,-0.05918992929542215,-0.048984769072073504,-0.9970441538211627,1.0,1.0,-0.03927919804118574,0.10163716599345207,0.014131201431155205,0.0,-0.016781434416770935,-0.12478725612163544,-0.17316244170069695,0.019569601863622665,0.006893928628414869,-0.08219850156456232,0.15882646664977074,0.03428527433425188,0.0,-0.041182941757142544,-0.03967896971330849,0.08800413691637976,0.0015339807878858025,-0.012271846303085088,-0.019941750242513212,-0.15800002115222123,-0.17333982903107747,0.013076334005176271,0.000728129547316228,-0.07325610473702765,0.14799301226129427,0.03698598121902065,-0.008828911645830613,-0.05082589677194409
25.014374463999957,0.0,0.0,0.0,0.0,-0.003272492347489368,-0.05918992929542215,-0.048984769072073504,-0.9970441538211627,1.0,1.0,-0.039506437024101615,0.1016108151525259,0.013956175185739994,0.0,-0.016651272773742676,-0.1248587891459465,-0.17292180098593235,0.019178912043571472,0.006618181709200144,-0.08218333963304758,0.15873266756534576,0.03452576044946909,0.0,-0.04115749429911375,-0.03967896971330849,0.08800413691637976,0.0015339807878858025,-0.012271846303085088,-0.019941750242513212,-0.15800002115222123,-0.17333982903107747,0.013076334005176271,0.000728129547316228,-0.07325610473702765,0.14799301226129427,0.03698598121902065,-0.008828911645830613,-0.05082589677194409
25.034548515000097,0.0,0.0,0.001090830782496456,-0.001090830782496456,-0.001090830782496456,-0.05918992929542215,-0.048984769072073504,-0.9970441538211627,1.0,1.0,-0.03938396065495908,0.1016185712069273,0.013951788656413555,0.0,-0.01665978878736496,-0.12494902312755585,-0.1729478370398283,0.019320033490657806,0.006638892460614443,-0.08215645793825388,0.15877215564250946,0.034568862058222294,0.0,-0.041182794608175755,-0.03967896971330849,0.08800413691637976,0.0015339807878858025,-0.012271846303085088,-0.019941750242513212,-0.15800002115222123,-0.17333982903107747,0.013076334005176271,0.000728129547316228,-0.07325610473702765,0.14799301226129427,0.03698598121902065,-0.008828911645830613,-0.05082589677194409
25.054672141000083,0.0,0.0,0.001090830782496456,-0.001090830782496456,-0.001090830782496456,-0.05918992929542215,-0.048984769072073504,-0.9970441538211627,1.0,1.0,-0.03939736052416265,0.10162291675806046,0.013942936435341835,0.0,-0.016642771661281586,-0.12493985146284103,-0.17294741235673428,0.019307728856801987,0.0066440473310649395,-0.08217678312212229,0.15877215191721916,0.034553094767034054,0.0,-0.041169311851263046,-0.03967896971330849,0.08800413691637976,0.0015339807878858025,-0.012271846303085088,-0.019941750242513212,-0.15800002115222123,-0.17333982903107747,0.013076334005176271,0.000728129547316228,-0.07325610473702765,0.14799301226129427,0.03698598121902065,-0.008828911645830613,-0.05082589677194409
25.074583326000038,0.0,0.0,0.001090830782496456,-0.001090830782496456,-0.001090830782496456,-0.05918992929542215,-0.048984769072073504,-0.9970441538211627,1.0,1.0,-0.03939875750802457,0.10162075236439705,0.013941423036158085,0.0,-0.016643770039081573,-0.12494216114282608,-0.1729466300457716,0.019306406378746033,0.0066457041539251804,-0.08217475656419992,0.15876997634768486,0.034555562771856785,0.0,-0.04117235168814659,-0.03967896971330849,0.08800413691637976,0.0015339807878858025,-0.012271846303085088,-0.019941750242513212,-0.15800002115222123,-0.17333982903107747,0.013076334005176271,0.000728129547316228,-0.07325610473702765,0.14799301226129427,0.03698598121902065,-0.008828911645830613,-0.05082589677194409
25.09465650800007,0.0,0.0,-0.002181661564992912,-0.002181661564992912,-0.002181661564992912,-0.05918992929542215,-0.048984769072073504,-0.9970441538211627,1.0,1.0,-0.03962689056061208,0.1016094982624054,0.01376318745315075,0.0,-0.016522042453289032,-0.12495356798171997,-0.17266473919153214,0.018975351005792618,0.006349852774292231,-0.08222315553575754,0.1586553007364273,0.03474834840744734,0.0,-0.04120697267353535,-0.03967896971330849,0.08800413691637976,0.0015339807878858025,-0.012271846303085088,-0.019941750242513212,-0.15800002115222123,-0.17333982903107747,0.013076334005176271,0.000728129547316228,-0.07325610473702765,0.14799301226129427,0.03698598121902065,-0.008828911645830613,-0.05082589677194409
25.11478024500002,0.0,0.0,-0.001090830782496456,-0.002181661564992912,0.0,-0.05918992929542215,-0.048984769072073504,-0.9970441538211627,1.0,1.0,-0.03950255154632032,0.10161932930350304,0.01378559973090887,0.0,-0.016532398760318756,-0.1250303089618683,-0.1726719420403242,0.019114527851343155,0.0063900151289999485,-0.08219626639038324,0.15869507938623428,0.03476598020642996,0.0,-0.04124606028199196,-0.03967896971330849,0.08800413691637976,0.0015339807878858025,-0.012271846303085088,-0.019941750242513212,-0.15800002115222123,-0.17333982903107747,0.013076334005176271,0.000728129547316228,-0.07325610473702765,0.14799301226129427,0.03698598121902065,-0.008828911645830613,-0.05082589677194409
25.13479053900005,0.0,0.0,-0.004363323129985824,-0.002181661564992912,0.0,-0.05918992929542215,-0.048984769072073504,-0.9970441538211627,1.0,1.0,-0.03975087939761579,0.10161809250712395,0.013602171093225479,0.0,-0.0164024718105793,-0.12502120435237885,-0.17235959321260452,0.01881111040711403,0.0060900417156517506,-0.08229305688291788,0.1585698500275612,0.03492299932986498,0.0,-0.04128643311560154,-0.03967896971330849,0.08800413691637976,0.0015339807878858025,-0.012271846303085088,-0.019941750242513212,-0.15800002115222123,-0.17333982903107747,0.013076334005176271,0.000728129547316228,-0.07325610473702765,0.14799301226129427,0.03698598121902065,-0.008828911645830613,-0.05082589677194409
25.154860833000157,0.0,0.0,-0.01090830782496456,-0.002181661564992912,0.0,-0.05918992929542215,-0.048984769072073504,-0.9970441538211627,1.0,1.0,-0.04013651772402227,0.10162024572491646,0.01324907410889864,0.0,-0.016143865883350372,-0.12506983429193497,-0.17165719158947468,0.01820967346429825,0.005476757418364286,-0.08239057008177042,0.15833159908652306,0.0353187071159482,0.0,-0.041469418443739414,-0.03967896971330849,0.08800413691637976,0.0015339807878858025,-0.012271846303085088,-0.019941750242513212,-0.15800002115222123,-0.17333982903107747,0.013076334005176271,0.000728129547316228,-0.07325610473702765,0.14799301226129427,0.03698598121902065,-0.008828911645830613,-0.05082589677194409
25.17504003199997,0.0,0.0,-0.01090830782496456,-0.002181661564992912,0.0,-0.05918992929542215,-0.048984769072073504,-0.9970441538211627,1.0,1.0,-0.03999293013475835,0.101636853069067,0.01325303502380848,0.0,-0.01609264686703682,-0.12521246820688248,-0.1714787483215332,0.018198519945144653,0.005468167830258608,-0.08228341583162546,0.15835267305374146,0.03541474882513285,0.0,-0.041581989265978336,-0.03967896971330849,0.08800413691637976,0.0015339807878858025,-0.012271846303085088,-0.019941750242513212,-0.15800002115222123,-0.17333982903107747,0.013076334005176271,0.000728129547316228,-0.07325610473702765,0.14799301226129427,0.03698598121902065,-0.008828911645830613,-0.05082589677194409
25.195034696999983,0.0,0.0,-0.00545415391248228,-0.001090830782496456,-0.003272492347489368,-0.05918992929542215,-0.048984769072073504,-0.9970441538211627,1.0,1.0,-0.03956451057456434,0.10165045410394669,0.013609001412987709,0.0,-0.016295090317726135,-0.12520255148410797,-0.1719570178538561,0.018654752522706985,0.00608303165063262,-0.0820941785350442,0.15856174379587173,0.035026474855840206,0.0,-0.041507139801979065,-0.03967896971330849,0.08800413691637976,0.0015339807878858025,-0.012271846303085088,-0.019941750242513212,-0.15800002115222123,-0.17333982903107747,0.013076334005176271,0.000728129547316228,-0.07325610473702765,0.14799301226129427,0.03698598121902065,-0.008828911645830613,-0.05082589677194409
25.21501962100001,0.0,0.0,-0.004363323129985824,-0.003272492347489368,-0.002181661564992912,-0.05918992929542215,-0.048984769072073504,-0.9970441538211627,1.0,1.0,-0.03966817050240934,0.10161173716187477,0.013615738600492477,0.0,-0.01635926216840744,-0.12519926577806473,-0.1722287405282259,0.018792234361171722,0.006136642303317785,-0.08217571023851633,0.15858669206500053,0.03498829994350672,0.0,-0.041309223510324955,-0.03967896971330849,0.08800413691637976,0.0015339807878858025,-0.012271846303085088,-0.019941750242513212,-0.15800002115222123,-0.17333982903107747,0.013076334005176271,0.000728129547316228,-0.07325610473702765,0.14799301226129427,0.03698598121902065,-0.008828911645830613,-0.05082589677194409
25.23517819100016,0.0,0.0,-0.004363323129985824,-0.003272492347489368,-0.002181661564992912,-0.05918992929542215,-0.048984769072073504,-0.9970441538211627,1.0,1.0,-0.0396614910569042,0.10161904618144035,0.013608267530798912,0.0,-0.016376517713069916,-0.125123031437397,-0.1722794696688652,0.018763083964586258,0.006128169130533934,-0.0821874076500535,0.1585845984518528,0.0349596431478858,0.0,-0.04132691863924265,-0.03967896971330849,0.08800413691637976,0.0015339807878858025,-0.012271846303085088,-0.019941750242513212,-0.15800002115222123,-0.17333982903107747,0.013076334005176271,0.000728129547316228,-0.07325610473702765,0.14799301226129427,0.03698598121902065,-0.008828911645830613,-0.05082589677194409
25.255140857000015,0.0,0.0,-0.01090830782496456,-0.001090830782496456,-0.003272492347489368,-0.05918992929542215,-0.048984769072073504,-0.9970441538211627,1.0,1.0,-0.04009291320107877,0.10162975452840328,0.01330516580492258,0.0,-0.01615278795361519,-0.1250278651714325,-0.17163745313882828,0.018179163336753845,0.005584447178989649,-0.08233689609915018,0.15833160281181335,0.035217986442148685,0.0,-0.041498517617583275,-0.03967896971330849,0.08800413691637976,0.0015339807878858025,-0.012271846303085088,-0.019941750242513212,-0.15800002115222123,-0.17333982903107747,0.013076334005176271,0.000728129547316228,-0.07325610473702765,0.14799301226129427,0.03698598121902065,-0.008828911645830613,-0.05082589677194409
25.275191576999987,0.0,0.0,-0.002181661564992912,0.0,0.001090830782496456,-0.05918992929542215,-0.048984769072073504,-0.9970441538211627,1.0,1.0,-0.03940140991471708,0.10164568945765495,0.013744540512561798,0.0,-0.016427896916866302,-0.12520136684179306,-0.17226395942270756,0.019057001918554306,0.006293968763202429,-0.08212227467447519,0.1586604043841362,0.03488852363079786,0.0,-0.04145105183124542,-0.03967896971330849,0.08800413691637976,0.0015339807878858025,-0.012271846303085088,-0.019941750242513212,-0.15800002115222123,-0.17333982903107747,0.013076334005176271,0.000728129547316228,-0.07325610473702765,0.14799301226129427,0.03698598121902065,-0.008828911645830613,-0.05082589677194409
25.295248519000097,0.0,0.0,-0.006544984694978736,0.0,0.0,-0.05918992929542215,-0.048984769072073504,-0.9970441538211627,1.0,1.0,-0.03987540095113218,0.10163094848394394,0.013509823940694332,0.0,-0.016302920877933502,-0.1250571832060814,-0.17201483808457851,0.018650241196155548,0.005936122965067625,-0.08234600815922022,0.1584748663008213,0.03497250843793154,0.0,-0.04137254785746336,-0.03967896971330849,0.08800413691637976,0.0015339807878858025,-0.012271846303085088,-0.019941750242513212,-0.15800002115222123,-0.17333982903107747,0.013076334005176271,0.000728129547316228,-0.07325610473702765,0.14799301226129427,0.03698598121902065,-0.008828911645830613,-0.05082589677194409
25.315336293999962,0.0,0.0,-0.004363323129985824,-0.001090830782496456,0.003272492347489368,-0.05918992929542215,-0.048984769072073504,-0.9970441538211627,1.0,1.0,-0.039675032487139106,0.10162815265357494,0.013576244935393333,0.0,-0.01636316627264023,-0.1251722052693367,-0.1721573043614626,0.018874414265155792,0.006019990425556898,-0.08227206859737635,0.15856533497571945,0.035021171905100346,0.0,-0.041388784535229206,-0.03967896971330849,0.08800413691637976,0.0015339807878858025,-0.012271846303085088,-0.019941750242513212,-0.15800002115222123,-0.17333982903107747,0.013076334005176271,0.000728129547316228,-0.07325610473702765,0.14799301226129427,0.03698598121902065,-0.008828911645830613,-0.05082589677194409
25.335598955000023,0.0,0.0,-0.004363323129985824,-0.001090830782496456,0.003272492347489368,-0.05918992929542215,-0.048984769072073504,-0.9970441538211627,1.0,1.0,-0.03970232396386564,0.10163713619112968,0.01356592494994402,0.0,-0.016354944556951523,-0.1251317411661148,-0.17218018509447575,0.018866777420043945,0.00602251710370183,-0.08231024537235498,0.15856337174773216,0.034983676858246326,0.0,-0.04136013239622116,-0.03967896971330849,0.08800413691637976,0.0015339807878858025,-0.012271846303085088,-0.019941750242513212,-0.15800002115222123,-0.17333982903107747,0.013076334005176271,0.000728129547316228,-0.07325610473702765,0.14799301226129427,0.03698598121902065,-0.008828911645830613,-0.05082589677194409
25.355624175999992,0.0,0.0,-0.002181661564992912,-0.001090830782496456,-0.001090830782496456,-0.05918992929542215,-0.048984769072073504,-0.9970441538211627,1.0,1.0,-0.03949467628262937,0.1016366071999073,0.013757814653217793,0.0,-0.016457967460155487,-0.12508894503116608,-0.17243343591690063,0.018973954021930695,0.0063353474251925945,-0.08215308282524347,0.15866373851895332,0.0348069341853261,0.0,-0.041336819529533386,-0.03967896971330849,0.08800413691637976,0.0015339807878858025,-0.012271846303085088,-0.019941750242513212,-0.15800002115222123,-0.17333982903107747,0.013076334005176271,0.000728129547316228,-0.07325610473702765,0.14799301226129427,0.03698598121902065,-0.008828911645830613,-0.05082589677194409
25.375617267000052,0.0,0.0,0.0,-0.002181661564992912,0.001090830782496456,-0.05918992929542215,-0.048984769072073504,-0.9970441538211627,1.0,1.0,-0.03944888128899038,0.10161898843944073,0.013822482898831367,0.0,-0.016546323895454407,-0.12510532140731812,-0.17271295562386513,0.019245821982622147,0.006473590154200792,-0.08219353947788477,0.15872978046536446,0.034730459563434124,0.0,-0.04120671842247248,-0.03967896971330849,0.08800413691637976,0.0015339807878858025,-0.012271846303085088,-0.019941750242513212,-0.15800002115222123,-0.17333982903107747,0.013076334005176271,0.000728129547316228,-0.07325610473702765,0.14799301226129427,0.03698598121902065,-0.008828911645830613,-0.05082589677194409
25.395775448999984,0.0,0.0,-0.001090830782496456,0.0,0.001090830782496456,-0.05918992929542215,-0.048984769072073504,-0.9970441538211627,1.0,1.0,-0.0395294779445976,0.10163628682494164,0.013788619078695774,0.0,-0.016531765460968018,-0.12497204542160034,-0.1726255789399147,0.019146598875522614,0.006407116074115038,-0.08226640615612268,0.1586730182170868,0.03466899786144495,0.0,-0.04126692935824394,-0.03967896971330849,0.08800413691637976,0.0015339807878858025,-0.012271846303085088,-0.019941750242513212,-0.15800002115222123,-0.17333982903107747,0.013076334005176271,0.000728129547316228,-0.07325610473702765,0.14799301226129427,0.03698598121902065,-0.008828911645830613,-0.05082589677194409
25.41581363199998,0.0,0.0,0.002181661564992912,0.001090830782496456,-0.001090830782496456,-0.05918992929542215,-0.048984769072073504,-0.9970441538211627,1.0,1.0,-0.03925640671513975,0.10163919255137444,0.014033873565495014,0.0,-0.01666456088423729,-0.1249578669667244,-0.1729303877800703,0.01941078156232834,0.006785655859857798,-0.08212122414261103,0.15880751982331276,0.03445857670158148,0.0,-0.04124153684824705,-0.03967896971330849,0.08800413691637976,0.0015339807878858025,-0.012271846303085088,-0.019941750242513212,-0.15800002115222123,-0.17333982903107747,0.013076334005176271,0.000728129547316228,-0.07325610473702765,0.14799301226129427,0.03698598121902065,-0.008828911645830613,-0.05082589677194409
25.435794575000045,0.0,0.0,0.004363323129985824,0.0,-0.002181661564992912,-0.05918992929542215,-0.048984769072073504,-0.9970441538211627,1.0,1.0,-0.03918526484631002,0.10162149369716644,0.014152134768664837,0.0,-0.016771089285612106,-0.12493030726909637,-0.1732536293566227,0.019607361406087875,0.007009566295892,-0.08209713641554117,0.15888691321015358,0.034318164922297,0.0,-0.04110371693968773,-0.03967896971330849,0.08800413691637976,0.0015339807878858025,-0.012271846303085088,-0.019941750242513212,-0.15800002115222123,-0.17333982903107747,0.013076334005176271,0.000728129547316228,-0.07325610473702765,0.14799301226129427,0.03698598121902065,-0.008828911645830613,-0.05082589677194409
25.45593527599999,0.0,0.0,0.001090830782496456,0.0,-0.001090830782496456,-0.05918992929542215,-0.048984769072073504,-0.9970441538211627,1.0,1.0,-0.03947036503814161,0.10161572694778442,0.01395329087972641,0.0,-0.01667516678571701,-0.12486016005277634,-0.17300734296441078,0.019334089010953903,0.006673610303550959,-0.08223957661539316,0.15874991938471794,0.03446691017597914,0.0,-0.04113328270614147,-0.03967896971330849,0.08800413691637976,0.0015339807878858025,-0.012271846303085088,-0.019941750242513212,-0.15800002115222123,-0.17333982903107747,0.013076334005176271,0.000728129547316228,-0.07325610473702765,0.14799301226129427,0.03698598121902065,-0.008828911645830613,-0.05082589677194409
25.476062476000152,0.0,0.0,0.001090830782496456,0.0,-0.001090830782496456,-0.05918992929542215,-0.048984769072073504,-0.9970441538211627,1.0,1.0,-0.039393739541992545,0.10162308253347874,0.013963115401566029,0.0,-0.016657643020153046,-0.12490339577198029,-0.17294666357338428,0.019309278577566147,0.006662397179752588,-0.08217863831669092,0.15876546129584312,0.03452006448060274,0.0,-0.04119690041989088,-0.03967896971330849,0.08800413691637976,0.0015339807878858025,-0.012271846303085088,-0.019941750242513212,-0.15800002115222123,-0.17333982903107747,0.013076334005176271,0.000728129547316228,-0.07325610473702765,0.14799301226129427,0.03698598121902065,-0.008828911645830613,-0.05082589677194409
25.495999124000036,0.0,0.0,0.00545415391248228,0.0,0.001090830782496456,-0.05918992929542215,-0.048984769072073504,-0.9970441538211627,1.0,1.0,-0.03911497979424894,0.10162966325879097,0.014162168838083744,0.0,-0.01679680496454239,-0.12495114654302597,-0.17332779988646507,0.01975998654961586,0.007019478362053633,-0.08212642464786768,0.15892184898257256,0.03432612959295511,0.0,-0.04110606573522091,-0.03967896971330849,0.08800413691637976,0.0015339807878858025,-0.012271846303085088,-0.019941750242513212,-0.15800002115222123,-0.17333982903107747,0.013076334005176271,0.000728129547316228,-0.07325610473702765,0.14799301226129427,0.03698598121902065,-0.008828911645830613,-0.05082589677194409
25.5160588440001,0.0,0.0,0.007635815477475192,0.0,0.002181661564992912,-0.05918992929542215,-0.048984769072073504,-0.9970441538211627,1.0,1.0,-0.039058262249454856,0.10162726975977421,0.014256465248763561,0.0,-0.016890600323677063,-0.1248898133635521,-0.17362014949321747,0.019972506910562515,0.007204542402178049,-0.08216377440840006,0.1589905098080635,0.03417178522795439,0.0,-0.04099501948803663,-0.03967896971330849,0.08800413691637976,0.0015339807878858025,-0.012271846303085088,-0.019941750242513212,-0.15800002115222123,-0.17333982903107747,0.013076334005176271,0.000728129547316228,-0.07325610473702765,0.14799301226129427,0.03698598121902065,-0.008828911645830613,-0.05082589677194409
25.53622034,0.0,0.0,0.007635815477475192,0.0,0.002181661564992912,-0.05918992929542215,-0.048984769072073504,-0.9970441538211627,1.0,1.0,-0.03909842832945287,0.10162349417805672,0.01425870694220066,0.0,-0.016912661492824554,-0.12482709437608719,-0.1736929565668106,0.019960984587669373,0.007203347515314817,-0.08219077531248331,0.1589871644973755,0.03414831403642893,0.0,-0.04096765536814928,-0.03967896971330849,0.08800413691637976,0.0015339807878858025,-0.012271846303085088,-0.019941750242513212,-0.15800002115222123,-0.17333982903107747,0.013076334005176271,0.000728129547316228,-0.07325610473702765,0.14799301226129427,0.03698598121902065,-0.008828911645830613,-0.05082589677194409
25.55619463500011,0.0,0.0,0.002181661564992912,0.0,0.002181661564992912,-0.05918992929542215,-0.048984769072073504,-0.9970441538211627,1.0,1.0,-0.0394844280090183,0.10161597095429897,0.013966785743832588,0.0,-0.01672479510307312,-0.12479482591152191,-0.17319125309586525,0.01946372166275978,0.006687906105071306,-0.08232326898723841,0.158780287951231,0.03443084005266428,0.0,-0.04106802027672529,-0.03967896971330849,0.08800413691637976,0.0015339807878858025,-0.012271846303085088,-0.019941750242513212,-0.15800002115222123,-0.17333982903107747,0.013076334005176271,0.000728129547316228,-0.07325610473702765,0.14799301226129427,0.03698598121902065,-0.008828911645830613,-0.05082589677194409
25.576345502000095,0.0,0.0,0.007635815477475192,0.0,0.002181661564992912,-0.05918992929542215,-0.048984769072073504,-0.9970441538211627,1.0,1.0,-0.03897844790481031,0.10163364559412003,0.014270692132413387,0.0,-0.016887366771697998,-0.12490600347518921,-0.1735859103500843,0.019942250102758408,0.007187823299318552,-0.08209663722664118,0.15900685638189316,0.03422724734991789,0.0,-0.041067712008953094,-0.03967896971330849,0.08800413691637976,0.0015339807878858025,-0.012271846303085088,-0.019941750242513212,-0.15800002115222123,-0.17333982903107747,0.013076334005176271,0.000728129547316228,-0.07325610473702765,0.14799301226129427,0.03698598121902065,-0.008828911645830613,-0.05082589677194409
25.596376889000112,0.0,0.0,0.003272492347489368,-0.001090830782496456,0.003272492347489368,-0.05918992929542215,-0.048984769072073504,-0.9970441538211627,1.0,1.0,-0.03943608119152486,0.1016115341335535,0.013987804763019085,0.0,-0.01673995330929756,-0.12486369162797928,-0.17328021675348282,0.0195876844227314,0.006749489810317755,-0.08232236001640558,0.15882189199328423,0.03442771639674902,0.0,-0.041005938313901424,-0.03967896971330849,0.08800413691637976,0.0015339807878858025,-0.012271846303085088,-0.019941750242513212,-0.15800002115222123,-0.17333982903107747,0.013076334005176271,0.000728129547316228,-0.07325610473702765,0.14799301226129427,0.03698598121902065,-0.008828911645830613,-0.05082589677194409
25.61643329499998,0.0,0.0,0.006544984694978736,0.001090830782496456,-0.001090830782496456,-0.05918992929542215,-0.048984769072073504,-0.9970441538211627,1.0,1.0,-0.039012225111946464,0.1016432587057352,0.014271887950599194,0.0,-0.01686985045671463,-0.1248149499297142,-0.17350099235773087,0.019781503826379776,0.007188329938799143,-0.08207267615944147,0.15896790847182274,0.03417023736983538,0.0,-0.0411224439740181,-0.03967896971330849,0.08800413691637976,0.0015339807878858025,-0.012271846303085088,-0.019941750242513212,-0.15800002115222123,-0.17333982903107747,0.013076334005176271,0.000728129547316228,-0.07325610473702765,0.14799301226129427,0.03698598121902065,-0.008828911645830613,-0.05082589677194409
25.636473959000114,0.0,0.0,0.002181661564992912,0.001090830782496456,0.0,-0.05918992929542215,-0.048984769072073504,-0.9970441538211627,1.0,1.0,-0.03945372789166868,0.10161712020635605,0.014020901173353195,0.0,-0.01672876998782158,-0.12479933351278305,-0.1731519252061844,0.019474219530820847,0.00676947133615613,-0.08227988425642252,0.15878050029277802,0.034374737180769444,0.0,-0.041087446734309196,-0.03967896971330849,0.08800413691637976,0.0015339807878858025,-0.012271846303085088,-0.019941750242513212,-0.15800002115222123,-0.17333982903107747,0.013076334005176271,0.000728129547316228,-0.07325610473702765,0.14799301226129427,0.03698598121902065,-0.008828911645830613,-0.05082589677194409
25.657402480999963,0.0,0.0,-0.001090830782496456,-0.001090830782496456,0.001090830782496456,-0.05918992929542215,-0.048984769072073504,-0.9970441538211627,1.0,1.0,-0.039607288083061576,0.10160802491009235,0.013799676671624184,0.0,-0.01658114790916443,-0.12491989880800247,-0.1727837324142456,0.019132666289806366,0.0063835750333964825,-0.08228272292762995,0.15867990255355835,0.03469658736139536,0.0,-0.04118531011044979,-0.03967896971330849,0.08800413691637976,0.0015339807878858025,-0.012271846303085088,-0.019941750242513212,-0.15800002115222123,-0.17333982903107747,0.013076334005176271,0.000728129547316228,-0.07325610473702765,0.14799301226129427,0.03698598121902065,-0.008828911645830613,-0.05082589677194409
25.676640490999944,0.0,0.0,0.002181661564992912,0.001090830782496456,0.0,-0.05918992929542215,-0.048984769072073504,-0.9970441538211627,1.0,1.0,-0.039253091206774116,0.10164723731577396,0.014018414542078972,0.0,-0.01667473092675209,-0.12491907924413681,-0.17295102588832378,0.019428156316280365,0.006747579667717218,-0.08214749488979578,0.15880531445145607,0.03446573298424482,0.0,-0.04125483427196741,-0.03967896971330849,0.08800413691637976,0.0015339807878858025,-0.012271846303085088,-0.019941750242513212,-0.15800002115222123,-0.17333982903107747,0.013076334005176271,0.000728129547316228,-0.07325610473702765,0.14799301226129427,0.03698598121902065,-0.008828911645830613,-0.05082589677194409
25.696847135000098,0.0,0.0,-0.004363323129985824,-0.001090830782496456,-0.001090830782496456,-0.05918992929542215,-0.048984769072073504,-0.9970441538211627,1.0,1.0,-0.039823503931984305,0.10160639509558678,0.013650830835103989,0.0,-0.016445353627204895,-0.12494181096553802,-0.17244176752865314,0.018819622695446014,0.006143478211015463,-0.08232340309768915,0.1585618555545807,0.03483739774674177,0.0,-0.04122930392622948,-0.03967896971330849,0.08800413691637976,0.0015339807878858025,-0.012271846303085088,-0.019941750242513212,-0.15800002115222123,-0.17333982903107747,0.013076334005176271,0.000728129547316228,-0.07325610473702765,0.14799301226129427,0.03698598121902065,-0.008828911645830613,-0.05082589677194409
25.716836910999973,0.0,0.0,-0.002181661564992912,-0.001090830782496456,0.0,-0.05918992929542215,-0.048984769072073504,-0.9970441538211627,1.0,1.0,-0.03951708017848432,0.10162949375808239,0.013749625533819199,0.0,-0.016492009162902832,-0.12504197657108307,-0.1724942810833454,0.019011665135622025,0.0063001071102917194,-0.0821845019236207,0.15865620970726013,0.03481575381010771,0.0,-0.04133443906903267,-0.03967896971330849,0.08800413691637976,0.0015339807878858025,-0.012271846303085088,-0.019941750242513212,-0.15800002115222123,-0.17333982903107747,0.013076334005176271,0.000728129547316228,-0.07325610473702765,0.14799301226129427,0.03698598121902065,-0.008828911645830613,-0.05082589677194409
25.73684924300005,0.0,0.0,-0.004363323129985824,-0.002181661564992912,-0.001090830782496456,-0.05918992929542215,-0.048984769072073504,-0.9970441538211627,1.0,1.0,-0.039722485234960914,0.10161844082176685,0.013625536113977432,0.0,-0.016397058963775635,-0.12505300343036652,-0.1723317988216877,0.018796522170305252,0.006117281038314104,-0.0822501266375184,0.15857874602079391,0.03492651227861643,0.0,-0.04129370581358671,-0.03967896971330849,0.08800413691637976,0.0015339807878858025,-0.012271846303085088,-0.019941750242513212,-0.15800002115222123,-0.17333982903107747,0.013076334005176271,0.000728129547316228,-0.07325610473702765,0.14799301226129427,0.03698598121902065,-0.008828911645830613,-0.05082589677194409
25.756949815000098,0.0,0.0,-0.003272492347489368,-0.003272492347489368,-0.002181661564992912,-0.05918992929542215,-0.048984769072073504,-0.9970441538211627,1.0,1.0,-0.03958652704022825,0.10161680728197098,0.013683158904314041,0.0,-0.016430184245109558,-0.1251019686460495,-0.1724182665348053,0.018853455781936646,0.006223128642886877,-0.08215250913053751,0.15863294899463654,0.03491635899990797,0.0,-0.04130495712161064,-0.03967896971330849,0.08800413691637976,0.0015339807878858025,-0.012271846303085088,-0.019941750242513212,-0.15800002115222123,-0.17333982903107747,0.013076334005176271,0.000728129547316228,-0.07325610473702765,0.14799301226129427,0.03698598121902065,-0.008828911645830613,-0.05082589677194409
25.77695566500006,0.0,0.0,-0.004363323129985824,-0.001090830782496456,-0.001090830782496456,-0.05918992929542215,-0.048984769072073504,-0.9970441538211627,1.0,1.0,-0.039682639529928565,0.10163240879774094,0.013628603890538216,0.0,-0.016395844519138336,-0.12503260374069214,-0.17227662354707718,0.018819086253643036,0.006136108655482531,-0.08224935922771692,0.15856807306408882,0.034888033755123615,0.0,-0.04135400801897049,-0.03967896971330849,0.08800413691637976,0.0015339807878858025,-0.012271846303085088,-0.019941750242513212,-0.15800002115222123,-0.17333982903107747,0.013076334005176271,0.000728129547316228,-0.07325610473702765,0.14799301226129427,0.03698598121902065,-0.008828911645830613,-0.05082589677194409
25.797037273000115,0.0,0.0,-0.00545415391248228,-0.003272492347489368,-0.002181661564992912,-0.05918992929542215,-0.048984769072073504,-0.9970441538211627,1.0,1.0,-0.039753796299919486,0.10160894133150578,0.013567281886935234,0.0,-0.016342535614967346,-0.12511882185935974,-0.17220624536275864,0.01865684986114502,0.0060251918621361256,-0.08220686111599207,0.15855147317051888,0.0350393271073699,0.0,-0.041329262778162956,-0.03967896971330849,0.08800413691637976,0.0015339807878858025,-0.012271846303085088,-0.019941750242513212,-0.15800002115222123,-0.17333982903107747,0.013076334005176271,0.000728129547316228,-0.07325610473702765,0.14799301226129427,0.03698598121902065,-0.008828911645830613,-0.05082589677194409
25.817087012000002,0.0,0.0,-0.006544984694978736,-0.002181661564992912,-0.002181661564992912,-0.05918992929542215,-0.048984769072073504,-0.9970441538211627,1.0,1.0,-0.03978081210516393,0.10162839852273464,0.013510655611753464,0.0,-0.016302067786455154,-0.12508785724639893,-0.17204342409968376,0.018579818308353424,0.005938621703535318,-0.08223159704357386,0.15850071236491203,0.03505366016179323,0.0,-0.04141382314264774,-0.03967896971330849,0.08800413691637976,0.0015339807878858025,-0.012271846303085088,-0.019941750242513212,-0.15800002115222123,-0.17333982903107747,0.013076334005176271,0.000728129547316228,-0.07325610473702765,0.14799301226129427,0.03698598121902065,-0.008828911645830613,-0.05082589677194409
25.83718902800001,0.0,0.0,-0.009817477042468103,-0.002181661564992912,-0.004363323129985824,-0.05918992929542215,-0.048984769072073504,-0.9970441538211627,1.0,1.0,-0.039972578873857856,0.10162309929728508,0.013374416157603264,0.0,-0.01617736741900444,-0.125101700425148,-0.17172124795615673,0.01824008673429489,0.005692209582775831,-0.08224152866750956,0.15839217975735664,0.03522047307342291,0.0,-0.041483115404844284,-0.03967896971330849,0.08800413691637976,0.0015339807878858025,-0.012271846303085088,-0.019941750242513212,-0.15800002115222123,-0.17333982903107747,0.013076334005176271,0.000728129547316228,-0.07325610473702765,0.14799301226129427,0.03698598121902065,-0.008828911645830613,-0.05082589677194409
25.85799249599995,0.0,0.0,-0.00545415391248228,-0.002181661564992912,0.0,-0.05918992929542215,-0.048984769072073504,-0.9970441538211627,1.0,1.0,-0.03965770988725126,0.1016298346221447,0.01354281883686781,0.0,-0.01630454510450363,-0.1252235397696495,-0.17201770283281803,0.018731027841567993,0.005983581300824881,-0.08218712452799082,0.15854478627443314,0.03509830962866545,0.0,-0.041443836875259876,-0.03967896971330849,0.08800413691637976,0.0015339807878858025,-0.012271846303085088,-0.019941750242513212,-0.15800002115222123,-0.17333982903107747,0.013076334005176271,0.000728129547316228,-0.07325610473702765,0.14799301226129427,0.03698598121902065,-0.008828911645830613,-0.05082589677194409
25.8776232780001,0.0,0.0,-0.004363323129985824,-0.001090830782496456,0.0,-0.05918992929542215,-0.048984769072073504,-0.9970441538211627,1.0,1.0,-0.03964874311350286,0.1016373373568058,0.013608694076538086,0.0,-0.0163559727370739,-0.12513136118650436,-0.17216978408396244,0.018824651837348938,0.006111980881541967,-0.08223481569439173,0.15857189148664474,0.03493692632764578,0.0,-0.04138141963630915,-0.03967896971330849,0.08800413691637976,0.0015339807878858025,-0.012271846303085088,-0.019941750242513212,-0.15800002115222123,-0.17333982903107747,0.013076334005176271,0.000728129547316228,-0.07325610473702765,0.14799301226129427,0.03698598121902065,-0.008828911645830613,-0.05082589677194409
25.897418483000138,0.0,0.0,-0.006544984694978736,-0.001090830782496456,-0.001090830782496456,-0.05918992929542215,-0.048984769072073504,-0.9970441538211627,1.0,1.0,-0.03981933160685003,0.10162672400474548,0.013515612110495567,0.0,-0.016300812363624573,-0.12509069591760635,-0.1720183975994587,0.01860439032316208,0.005936149973422289,-0.08227128628641367,0.15849099308252335,0.03503125999122858,0.0,-0.04140246007591486,-0.03967896971330849,0.08800413691637976,0.0015339807878858025,-0.012271846303085088,-0.019941750242513212,-0.15800002115222123,-0.17333982903107747,0.013076334005176271,0.000728129547316228,-0.07325610473702765,0.14799301226129427,0.03698598121902065,-0.008828911645830613,-0.05082589677194409
25.917484739999963,0.0,0.0,-0.00545415391248228,0.0,-0.002181661564992912,-0.05918992929542215,-0.048984769072073504,-0.9970441538211627,1.0,1.0,-0.039672126760706306,0.10163972340524197,0.013612010516226292,0.0,-0.016346268355846405,-0.12507954984903336,-0.17207139171659946,0.01869473233819008,0.006077505182474852,-0.08219403866678476,0.15853675454854965,0.03494430612772703,0.0,-0.041451490484178066,-0.03967896971330849,0.08800413691637976,0.0015339807878858025,-0.012271846303085088,-0.019941750242513212,-0.15800002115222123,-0.17333982903107747,0.013076334005176271,0.000728129547316228,-0.07325610473702765,0.14799301226129427,0.03698598121902065,-0.008828911645830613,-0.05082589677194409
25.937550829999964,0.0,0.0,-0.01090830782496456,-0.002181661564992912,-0.002181661564992912,-0.05918992929542215,-0.048984769072073504,-0.9970441538211627,1.0,1.0,-0.040114996721968055,0.10161332599818707,0.013286279514431953,0.0,-0.016138501465320587,-0.12512826919555664,-0.17161918431520462,0.018196318298578262,0.005540553946048021,-0.0823312932625413,0.15833909809589386,0.03530231025069952,0.0,-0.041458142921328545,-0.03967896971330849,0.08800413691637976,0.0015339807878858025,-0.012271846303085088,-0.019941750242513212,-0.15800002115222123,-0.17333982903107747,0.013076334005176271,0.000728129547316228,-0.07325610473702765,0.14799301226129427,0.03698598121902065,-0.008828911645830613,-0.05082589677194409
25.95789610199995,0.0,0.0,-0.004363323129985824,-0.002181661564992912,-0.001090830782496456,-0.05918992929542215,-0.048984769072073504,-0.9970441538211627,1.0,1.0,-0.0395268218126148,0.10163836926221848,0.013622548431158066,0.0,-0.016343381255865097,-0.12522728741168976,-0.17210175842046738,0.018782611936330795,0.006104794796556234,-0.08210671786218882,0.15859825536608696,0.035038371570408344,0.0,-0.041460081934928894,-0.03967896971330849,0.08800413691637976,0.0015339807878858025,-0.012271846303085088,-0.019941750242513212,-0.15800002115222123,-0.17333982903107747,0.013076334005176271,0.000728129547316228,-0.07325610473702765,0.14799301226129427,0.03698598121902065,-0.008828911645830613,-0.05082589677194409
25.97777226900007,0.0,0.0,-0.002181661564992912,-0.001090830782496456,-0.001090830782496456,-0.05918992929542215,-0.048984769072073504,-0.9970441538211627,1.0,1.0,-0.03951385780237615,0.10163611173629761,0.013744986616075039,0.0,-0.016446631401777267,-0.12511304020881653,-0.17241028510034084,0.019020527601242065,0.006345886271446943,-0.08217997942119837,0.15865416079759598,0.03479114081710577,0.0,-0.041315775364637375,-0.03967896971330849,0.08800413691637976,0.0015339807878858025,-0.012271846303085088,-0.019941750242513212,-0.15800002115222123,-0.17333982903107747,0.013076334005176271,0.000728129547316228,-0.07325610473702765,0.14799301226129427,0.03698598121902065,-0.008828911645830613,-0.05082589677194409
25.997915727999953,0.0,0.0,0.002181661564992912,0.001090830782496456,-0.002181661564992912,-0.05918992929542215,-0.048984769072073504,-0.9970441538211627,1.0,1.0,-0.039220662554726005,0.10164296254515648,0.014038228429853916,0.0,-0.016654156148433685,-0.12499331682920456,-0.17287835851311684,0.019407715648412704,0.006819139700382948,-0.08208885882049799,0.1588064394891262,0.03444108087569475,0.0,-0.041263313964009285,-0.03967896971330849,0.08800413691637976,0.0015339807878858025,-0.012271846303085088,-0.019941750242513212,-0.15800002115222123,-0.17333982903107747,0.013076334005176271,0.000728129547316228,-0.07325610473702765,0.14799301226129427,0.03698598121902065,-0.008828911645830613,-0.05082589677194409
26.01805248400001,0.0,0.0,-0.004363323129985824,0.001090830782496456,-0.003272492347489368,-0.05918992929542215,-0.048984769072073504,-0.9970441538211627,1.0,1.0,-0.039786083390936255,0.10161817818880081,0.013707640580832958,0.0,-0.016462884843349457,-0.1248842179775238,-0.17239765636622906,0.01881667599081993,0.006243134383112192,-0.08229740802198648,0.15854962170124054,0.034713481552898884,0.0,-0.04128314461559057,-0.03967896971330849,0.08800413691637976,0.0015339807878858025,-0.012271846303085088,-0.019941750242513212,-0.15800002115222123,-0.17333982903107747,0.013076334005176271,0.000728129547316228,-0.07325610473702765,0.14799301226129427,0.03698598121902065,-0.008828911645830613,-0.05082589677194409
26.03806098300015,0.0,0.0,-0.003272492347489368,-0.001090830782496456,-0.003272492347489368,-0.05918992929542215,-0.048984769072073504,-0.9970441538211627,1.0,1.0,-0.039581397315487266,0.10161556489765644,0.013749470934271812,0.0,-0.016470983624458313,-0.125034399330616,-0.17242508940398693,0.0188649520277977,0.006287495139986277,-0.08213999960571527,0.15862547978758812,0.034829177893698215,0.0,-0.041335251182317734,-0.03967896971330849,0.08800413691637976,0.0015339807878858025,-0.012271846303085088,-0.019941750242513212,-0.15800002115222123,-0.17333982903107747,0.013076334005176271,0.000728129547316228,-0.07325610473702765,0.14799301226129427,0.03698598121902065,-0.008828911645830613,-0.05082589677194409
26.05817335000006,0.0,0.0,-0.004363323129985824,0.001090830782496456,-0.001090830782496456,-0.05918992929542215,-0.048984769072073504,-0.9970441538211627,1.0,1.0,-0.03967812447808683,0.10164074972271919,0.013670571148395538,0.0,-0.016420908272266388,-0.12497952580451965,-0.17224873788654804,0.018856201320886612,0.00617268355563283,-0.08226549718528986,0.15855631977319717,0.034809510223567486,0.0,-0.041388217359781265,-0.03967896971330849,0.08800413691637976,0.0015339807878858025,-0.012271846303085088,-0.019941750242513212,-0.15800002115222123,-0.17333982903107747,0.013076334005176271,0.000728129547316228,-0.07325610473702765,0.14799301226129427,0.03698598121902065,-0.008828911645830613,-0.05082589677194409
26.078206867000063,0.0,0.0,-0.001090830782496456,0.0,-0.001090830782496456,-0.05918992929542215,-0.048984769072073504,-0.9970441538211627,1.0,1.0,-0.039442302426323295,0.10162903741002083,0.013847075402736664,0.0,-0.01652412861585617,-0.12506389617919922,-0.17255595698952675,0.01911381632089615,0.006459043826907873,-0.08214470092207193,0.1586974374949932,0.034713453613221645,0.0,-0.04131073784083128,-0.03967896971330849,0.08800413691637976,0.0015339807878858025,-0.012271846303085088,-0.019941750242513212,-0.15800002115222123,-0.17333982903107747,0.013076334005176271,0.000728129547316228,-0.07325610473702765,0.14799301226129427,0.03698598121902065,-0.008828911645830613,-0.05082589677194409
26.098227050000105,0.0,0.0,0.001090830782496456,0.002181661564992912,-0.002181661564992912,-0.05918992929542215,-0.048984769072073504,-0.9970441538211627,1.0,1.0,-0.03931333287619054,0.10164757817983627,0.014001640491187572,0.0,-0.01663779467344284,-0.1249300092458725,-0.17279373854398727,0.01933150365948677,0.006733361165970564,-0.08214253280311823,0.15875718742609024,0.0344413323327899,0.0,-0.041283123195171356,-0.03967896971330849,0.08800413691637976,0.0015339807878858025,-0.012271846303085088,-0.019941750242513212,-0.15800002115222123,-0.17333982903107747,0.013076334005176271,0.000728129547316228,-0.07325610473702765,0.14799301226129427,0.03698598121902065,-0.008828911645830613,-0.05082589677194409
26.118324899000072,0.0,0.0,-0.002181661564992912,-0.001090830782496456,-0.001090830782496456,-0.05918992929542215,-0.048984769072073504,-0.9970441538211627,1.0,1.0,-0.03966198652051389,0.10160263255238533,0.01377222128212452,0.0,-0.016523249447345734,-0.12499143928289413,-0.17261971347033978,0.01902700588107109,0.006349035073071718,-0.08225397858768702,0.15864389389753342,0.03473787847906351,0.0,-0.04119391739368439,-0.03967896971330849,0.08800413691637976,0.0015339807878858025,-0.012271846303085088,-0.019941750242513212,-0.15800002115222123,-0.17333982903107747,0.013076334005176271,0.000728129547316228,-0.07325610473702765,0.14799301226129427,0.03698598121902065,-0.008828911645830613,-0.05082589677194409
26.138452989000143,0.0,0.0,-0.002181661564992912,-0.001090830782496456,-0.002181661564992912,-0.05918992929542215,-0.048984769072073504,-0.9970441538211627,1.0,1.0,-0.03953619836829603,0.10162687487900257,0.013779206201434135,0.0,-0.016512133181095123,-0.12498481571674347,-0.17255619168281555,0.018975451588630676,0.0063599287532269955,-0.08217308763414621,0.15865714102983475,0.034745353274047375,0.0,-0.04130057152360678,-0.03967896971330849,0.08800413691637976,0.0015339807878858025,-0.012271846303085088,-0.019941750242513212,-0.15800002115222123,-0.17333982903107747,0.013076334005176271,0.000728129547316228,-0.07325610473702765,0.14799301226129427,0.03698598121902065,-0.008828911645830613,-0.05082589677194409
26.15843937700015,0.0,0.0,0.0,-0.001090830782496456,0.001090830782496456,-0.05918992929542215,-0.048984769072073504,-0.9970441538211627,1.0,1.0,-0.03944216459058225,0.10162528418004513,0.01384676992893219,0.0,-0.01656394451856613,-0.1250467747449875,-0.17272645607590675,0.019259270280599594,0.006486847531050444,-0.08220449928194284,0.15872715041041374,0.034692381508648396,0.0,-0.041230736300349236,-0.03967896971330849,0.08800413691637976,0.0015339807878858025,-0.012271846303085088,-0.019941750242513212,-0.15800002115222123,-0.17333982903107747,0.013076334005176271,0.000728129547316228,-0.07325610473702765,0.14799301226129427,0.03698598121902065,-0.008828911645830613,-0.05082589677194409
26.17852737399994,0.0,0.0,0.003272492347489368,-0.001090830782496456,0.0,-0.05918992929542215,-0.048984769072073504,-0.9970441538211627,1.0,1.0,-0.03922523348592222,0.10162908583879471,0.014035877771675587,0.0,-0.016693219542503357,-0.12500230222940445,-0.1730852797627449,0.0195089690387249,0.006824342999607325,-0.08212530706077814,0.15885264053940773,0.03447073232382536,0.0,-0.04115414805710316,-0.03967896971330849,0.08800413691637976,0.0015339807878858025,-0.012271846303085088,-0.019941750242513212,-0.15800002115222123,-0.17333982903107747,0.013076334005176271,0.000728129547316228,-0.07325610473702765,0.14799301226129427,0.03698598121902065,-0.008828911645830613,-0.05082589677194409
26.19870440700015,0.0,0.0,-0.003272492347489368,0.0,0.0,-0.05918992929542215,-0.048984769072073504,-0.9970441538211627,1.0,1.0,-0.03975628851912916,0.10162089951336384,0.013693878427147865,0.0,-0.01648956909775734,-0.12488840520381927,-0.17253081686794758,0.018948253244161606,0.0062365238554775715,-0.08235015068203211,0.15858463943004608,0.0347288241609931,0.0,-0.04123770818114281,-0.03967896971330849,0.08800413691637976,0.0015339807878858025,-0.012271846303085088,-0.019941750242513212,-0.15800002115222123,-0.17333982903107747,0.013076334005176271,0.000728129547316228,-0.07325610473702765,0.14799301226129427,0.03698598121902065,-0.008828911645830613,-0.05082589677194409
26.21890394000002,0.0,0.0,-0.004363323129985824,0.002181661564992912,-0.001090830782496456,-0.05918992929542215,-0.048984769072073504,-0.9970441538211627,1.0,1.0,-0.039658246329054236,0.101643992587924,0.013700388371944427,0.0,-0.016438361257314682,-0.12492435425519943,-0.17226138524711132,0.01882442831993103,0.006183892022818327,-0.08225001487880945,0.15855957567691803,0.034788974560797215,0.0,-0.04143101256340742,-0.03967896971330849,0.08800413691637976,0.0015339807878858025,-0.012271846303085088,-0.019941750242513212,-0.15800002115222123,-0.17333982903107747,0.013076334005176271,0.000728129547316228,-0.07325610473702765,0.14799301226129427,0.03698598121902065,-0.008828911645830613,-0.05082589677194409
26.23898232600004,0.0,0.0,0.001090830782496456,0.0,0.0,-0.05918992929542215,-0.048984769072073504,-0.9970441538211627,1.0,1.0,-0.039310784777626395,0.10162838362157345,0.013953526504337788,0.0,-0.016601383686065674,-0.12508175522089005,-0.17276309989392757,0.01934206858277321,0.006635368335992098,-0.0821176553145051,0.15877660736441612,0.03462113533169031,0.0,-0.04125739447772503,-0.03967896971330849,0.08800413691637976,0.0015339807878858025,-0.012271846303085088,-0.019941750242513212,-0.15800002115222123,-0.17333982903107747,0.013076334005176271,0.000728129547316228,-0.07325610473702765,0.14799301226129427,0.03698598121902065,-0.008828911645830613,-0.05082589677194409
26.258975399000064,0.0,0.0,0.002181661564992912,-0.001090830782496456,-0.002181661564992912,-0.05918992929542215,-0.048984769072073504,-0.9970441538211627,1.0,1.0,-0.03930872096680105,0.10162264108657837,0.014010908082127571,0.0,-0.0166727676987648,-0.12497808039188385,-0.1730145923793316,0.01938818395137787,0.006782809738069773,-0.08212477806955576,0.15881257504224777,0.03447396960109472,0.0,-0.04114678595215082,-0.03967896971330849,0.08800413691637976,0.0015339807878858025,-0.012271846303085088,-0.019941750242513212,-0.15800002115222123,-0.17333982903107747,0.013076334005176271,0.000728129547316228,-0.07325610473702765,0.14799301226129427,0.03698598121902065,-0.008828911645830613,-0.05082589677194409
26.27903219300015,0.0,0.0,-0.001090830782496456,0.0,-0.001090830782496456,-0.05918992929542215,-0.048984769072073504,-0.9970441538211627,1.0,1.0,-0.039571659406647086,0.101622074842453,0.01383339986205101,0.0,-0.016576535999774933,-0.12489933520555496,-0.1727336086332798,0.01913345232605934,0.006464968901127577,-0.08225725684314966,0.15867293253540993,0.03461065422743559,0.0,-0.041216096840798855,-0.03967896971330849,0.08800413691637976,0.0015339807878858025,-0.012271846303085088,-0.019941750242513212,-0.15800002115222123,-0.17333982903107747,0.013076334005176271,0.000728129547316228,-0.07325610473702765,0.14799301226129427,0.03698598121902065,-0.008828911645830613,-0.05082589677194409
26.299035081000056,0.0,0.0,-0.003272492347489368,0.002181661564992912,0.0,-0.05918992929542215,-0.048984769072073504,-0.9970441538211627,1.0,1.0,-0.03964881016872823,0.10163949988782406,0.013739814050495625,0.0,-0.016487304121255875,-0.12490049749612808,-0.17240867763757706,0.01896148920059204,0.006263135466724634,-0.08229044917970896,0.15858861058950424,0.03471465688198805,0.0,-0.04136212542653084,-0.03967896971330849,0.08800413691637976,0.0015339807878858025,-0.012271846303085088,-0.019941750242513212,-0.15800002115222123,-0.17333982903107747,0.013076334005176271,0.000728129547316228,-0.07325610473702765,0.14799301226129427,0.03698598121902065,-0.008828911645830613,-0.05082589677194409
