time_s,forward_cmd_m_s,yaw_cmd_rad_s,gyro_x,gyro_y,gyro_z,grav_x,grav_y,grav_z,left_contact,right_contact,left_hip_yaw_velocity_rad_s,left_hip_roll_velocity_rad_s,left_hip_pitch_velocity_rad_s,left_knee_velocity_rad_s,left_ankle_velocity_rad_s,neck_pitch_velocity_rad_s,head_pitch_velocity_rad_s,head_yaw_velocity_rad_s,head_roll_velocity_rad_s,right_hip_yaw_velocity_rad_s,right_hip_roll_velocity_rad_s,right_hip_pitch_velocity_rad_s,right_knee_velocity_rad_s,right_ankle_velocity_rad_s,left_hip_yaw_action,left_hip_roll_action,left_hip_pitch_action,left_knee_action,left_ankle_action,neck_pitch_action,head_pitch_action,head_yaw_action,head_roll_action,right_hip_yaw_action,right_hip_roll_action,right_hip_pitch_action,right_knee_action,right_ankle_action,left_hip_yaw_unclipped_target_rad,left_hip_roll_unclipped_target_rad,left_hip_pitch_unclipped_target_rad,left_knee_unclipped_target_rad,left_ankle_unclipped_target_rad,neck_pitch_unclipped_target_rad,head_pitch_unclipped_target_rad,head_yaw_unclipped_target_rad,head_roll_unclipped_target_rad,right_hip_yaw_unclipped_target_rad,right_hip_roll_unclipped_target_rad,right_hip_pitch_unclipped_target_rad,right_knee_unclipped_target_rad,right_ankle_unclipped_target_rad,left_hip_yaw_target_rad,left_hip_roll_target_rad,left_hip_pitch_target_rad,left_knee_target_rad,left_ankle_target_rad,neck_pitch_target_rad,head_pitch_target_rad,head_yaw_target_rad,head_roll_target_rad,right_hip_yaw_target_rad,right_hip_roll_target_rad,right_hip_pitch_target_rad,right_knee_target_rad,right_ankle_target_rad,left_hip_yaw_actual_rad,left_hip_roll_actual_rad,left_hip_pitch_actual_rad,left_knee_actual_rad,left_ankle_actual_rad,neck_pitch_actual_rad,head_pitch_actual_rad,head_yaw_actual_rad,head_roll_actual_rad,right_hip_yaw_actual_rad,right_hip_roll_actual_rad,right_hip_pitch_actual_rad,right_knee_actual_rad,right_ankle_actual_rad,telemetry_joint,telemetry_servo_id,voltage_V,temperature_raw,load_word_raw,current_word_raw
12.578500241000029,0.0,0.0,0.001090830782496456,0.001090830782496456,-0.001090830782496456,-0.061213655351350024,-0.09386093820540338,-0.9937016718702487,1.0,1.0,0.0,-0.0,-0.0,-0.0,-0.0,-0.0,-0.0,0.0,0.0,-0.0,0.0,0.0,0.0,0.0,0.005464373156428337,-0.06529070436954498,0.11352671682834625,0.1434841752052307,0.22071489691734314,-0.006390724331140518,0.04191766679286957,0.032185912132263184,-0.020005255937576294,-0.015403857454657555,-0.02623685821890831,0.14195841550827026,0.1898125857114792,0.33258962631225586,0.0038095542695373297,0.10585037246346474,0.036759259179234505,-0.0033988654613494873,-0.0006718114018440247,-0.20946639124304056,-0.13141584768891335,0.008046478033065796,-0.0050013139843940735,0.00033782562240958214,0.1156138340011239,0.04718330968171358,0.008183237165212631,0.027296870946884155,0.0038095542695373297,0.10585037246346474,0.036759259179234505,-0.0033988654613494873,-0.0006718114018440247,-0.20946639124304056,-0.13141584768891335,0.008046478033065796,-0.0050013139843940735,0.00033782562240958214,0.1156138340011239,0.04718330968171358,0.0,0.027296870946884155,-0.0015339807878858025,0.1198209437648451,0.012271846303085088,-0.003067961575771161,-0.0813009817579391,-0.21015536794033274,-0.1349903093339364,0.004601942363656963,-0.003067961575771161,0.009203884727313927,0.1182869629769593,0.008486663487822343,-0.004431500053892021,-0.060029781499258014,left_hip_pitch,22,6.5,30,1047,0
12.593488050000133,0.0,0.0,0.0,-0.001090830782496456,-0.001090830782496456,-0.061213655351350024,-0.09386093820540338,-0.9937016718702487,1.0,1.0,0.0,-0.0,-0.0,-0.0,-0.0,-0.0,-0.0,0.0,0.0,-0.0,0.0,0.0,0.0,0.0,0.03024258278310299,-0.05388016626238823,0.08688507974147797,0.09952668845653534,0.16149000823497772,-0.03185296431183815,0.056137800216674805,0.02160322479903698,0.0018370859324932098,-0.014681832864880562,-0.022275341674685478,0.1464156210422516,0.20305494964122772,0.37317168712615967,0.010004106676205993,0.10870300699025393,0.030098849907517433,-0.01438823714852333,-0.015478033572435379,-0.21583195123821497,-0.12786081433296204,0.005400806199759245,0.00045927148312330246,0.0005183317698538303,0.11660421313717961,0.04829761106520891,0.011493828147649765,0.03744238615036011,0.010004106676205993,0.10870300699025393,0.030098849907517433,-0.01438823714852333,-0.015478033572435379,-0.21583195123821497,-0.12786081433296204,0.005400806199759245,0.00045927148312330246,0.0005183317698538303,0.11660421313717961,0.04829761106520891,0.0,0.03744238615036011,-0.0015339807878858025,0.1198209437648451,0.012271846303085088,-0.003067961575771161,-0.07976700097005329,-0.21015536794033274,-0.1349903093339364,0.004601942363656963,-0.003067961575771161,0.009203884727313927,0.1182869629769593,0.008486663487822343,-0.005965480841777379,-0.060029781499258014,,,,,,
12.613361611000073,0.0,0.0,0.002181661564992912,-0.001090830782496456,0.001090830782496456,-0.061213655351350024,-0.09386093820540338,-0.9937016718702487,1.0,1.0,0.0,-0.0,-0.0,-0.30687107727372825,0.07671776931843206,-0.0,-0.0,0.0,0.0,-0.0,0.0,0.0,-0.15343553863686413,0.0,0.03147992491722107,-0.05704035237431526,0.07730302214622498,0.08916622400283813,0.15944597125053406,-0.046537358313798904,0.05904202163219452,0.03191988170146942,0.0101388581097126,-0.006943624932318926,-0.023137005046010017,0.15793409943580627,0.2052021622657776,0.38999396562576294,0.010313442209735513,0.10791296046227217,0.027703335508704185,-0.016978353261947632,-0.015989042818546295,-0.21950304973870516,-0.1271347589790821,0.007979970425367355,0.00253471452742815,0.0024528837529942393,0.11638879729434848,0.051177230663597584,0.012030631303787231,0.041647955775260925,0.010313442209735513,0.10791296046227217,0.027703335508704185,-0.016978353261947632,-0.015989042818546295,-0.21950304973870516,-0.1271347589790821,0.007979970425367355,0.00253471452742815,0.0024528837529942393,0.11638879729434848,0.051177230663597584,0.0,0.041647955775260925,-0.0015339807878858025,0.1198209437648451,0.012271846303085088,-0.007669903939428124,-0.07669903939428213,-0.21015536794033274,-0.1349903093339364,0.004601942363656963,-0.003067961575771161,0.009203884727313927,0.1182869629769593,0.008486663487822343,-0.009033442417548984,-0.060029781499258014,,,,,,
12.631838825000159,0.0,0.0,0.007635815477475192,0.001090830782496456,-0.00545415391248228,-0.06120776255464376,-0.09487203195969784,-0.9936060121370505,1.0,1.0,0.07671776931843206,-0.0,-0.0,-0.3835888465921603,0.2301533079552962,-0.0,-0.0,0.0,0.0,-0.0,0.0,0.0,-0.2301533079552962,0.0,0.0306286308914423,-0.05691594257950783,0.06972216069698334,0.08294210582971573,0.16914412379264832,-0.04869157075881958,0.0664977878332138,0.03453367203474045,0.007929626852273941,-0.0041162921115756035,-0.025143034756183624,0.16151157021522522,0.19058877229690552,0.39811766147613525,0.01010061870329082,0.10794406291097403,0.025808120146393776,-0.018534382805228233,-0.01356450468301773,-0.22004160284996033,-0.12527081742882729,0.008633418008685112,0.0019824067130684853,0.00315971695818007,0.11588728986680508,0.05207159835845232,0.008377283811569214,0.043678879737854004,0.01010061870329082,0.10794406291097403,0.025808120146393776,-0.018534382805228233,-0.01356450468301773,-0.22004160284996033,-0.12527081742882729,0.008633418008685112,0.0019824067130684853,0.00315971695818007,0.11588728986680508,0.05207159835845232,0.0,0.043678879737854004,0.0,0.1198209437648451,0.012271846303085088,-0.015339807878856249,-0.06902913545485401,-0.21015536794033274,-0.1349903093339364,0.004601942363656963,-0.003067961575771161,0.009203884727313927,0.1182869629769593,0.008486663487822343,-0.015169365569091306,-0.060029781499258014,,,,,,
12.651952086000165,0.0,0.0,0.0916297857297023,0.04581489286485115,-0.050178215994836975,-0.060179586182516356,-0.09689933368371278,-0.9934731685045921,1.0,1.0,0.0,-0.0,-0.0,-0.30687107727372825,0.3835888465921603,-0.07671776931843206,-0.0,0.0,0.0,-0.0,0.0,0.15343553863686413,-0.4603066159105924,0.0,0.025242207571864128,-0.05070948228240013,0.08195453882217407,0.05600837618112564,0.16151376068592072,-0.050735652446746826,0.07262010872364044,0.04479903727769852,0.0015118476003408432,-0.012511222623288631,-0.02192644774913788,0.1640310287475586,0.18459081649780273,0.38388150930404663,0.008754012873396277,0.10949567798525095,0.02886621467769146,-0.025267815217375755,-0.01547209545969963,-0.22055262327194214,-0.12374023720622063,0.01119975931942463,0.0003779619000852108,0.001060984330251813,0.11669143661856651,0.052701462991535664,0.006877794861793518,0.04011984169483185,0.008754012873396277,0.10949567798525095,0.02886621467769146,-0.025267815217375755,-0.01547209545969963,-0.22055262327194214,-0.12374023720622063,0.01119975931942463,0.0003779619000852108,0.001060984330251813,0.11669143661856651,0.052701462991535664,0.0,0.04011984169483185,0.0,0.1182869629769593,0.012271846303085088,-0.023009711818284817,-0.06135923151542544,-0.21168934872821854,-0.1349903093339364,0.004601942363656963,-0.003067961575771161,0.007669903939428124,0.1182869629769593,0.011554625063593504,-0.02283926950851943,-0.060029781499258014,,,,,,
12.672945091999964,0.0,0.0,0.0916297857297023,0.04581489286485115,-0.050178215994836975,-0.060179586182516356,-0.09689933368371278,-0.9934731685045921,1.0,1.0,0.0,-0.15343553863686413,-0.0,-0.30687107727372825,0.4603066159105924,-0.0,-0.0,0.07671776931843206,0.0,-0.07671776931843206,0.0,0.30687107727372825,-0.30687107727372825,0.07671776931843206,0.029763037338852882,-0.05024364963173866,0.08250343799591064,0.057194314897060394,0.17537963390350342,-0.052873242646455765,0.08104182779788971,0.050759948790073395,-0.0027431678026914597,-0.013171910308301449,-0.02276948280632496,0.1649690568447113,0.17951788008213043,0.3829616904258728,0.009884220315143466,0.10961213614791632,0.029003439471125603,-0.024971330538392067,-0.012005627155303955,-0.22108702082186937,-0.12163480743765831,0.012689987197518349,-0.0006857919506728649,0.0008958124089986086,0.11648067785426974,0.05293597001582384,0.0056095607578754425,0.03988988697528839,0.009884220315143466,0.10961213614791632,0.029003439471125603,-0.024971330538392067,-0.012005627155303955,-0.22108702082186937,-0.12163480743765831,0.012689987197518349,-0.0006857919506728649,0.0008958124089986086,0.11648067785426974,0.05293597001582384,0.0,0.03988988697528839,0.0,0.11521900140118814,0.012271846303085088,-0.027611654181941336,-0.052155346788111956,-0.21322332951610434,-0.13192234775816525,0.006135923151542766,-0.003067961575771161,0.007669903939428124,0.1182869629769593,0.01769054821513627,-0.028975192660062196,-0.05696181992348685,right_hip_pitch,12,6.4,31,1152,5
12.692032611000059,0.0,0.0,0.020725784867432664,0.07417649320975901,-0.06872233929727672,-0.058182078776263614,-0.10105308419035258,-0.9931782920930612,1.0,1.0,0.0,-0.2301533079552962,0.07671776931843206,-0.0,0.3835888465921603,-0.2301533079552962,0.15343553863686413,0.0,0.0,-0.0,0.0,0.30687107727372825,-0.15343553863686413,0.15343553863686413,0.03131324052810669,-0.05714600905776024,0.05933764949440956,0.07179216295480728,0.19254586100578308,-0.04958949238061905,0.08948132395744324,0.012804757803678513,0.0014615487307310104,-0.01594315469264984,-0.03194408863782883,0.17540998756885529,0.15809191763401031,0.3580419421195984,0.010271771112456918,0.10788654629141092,0.023211992345750332,-0.021321868523955345,-0.007714070379734039,-0.2202660832554102,-0.11952493339776993,0.003201189450919628,0.0003653871826827526,0.00020300131291151047,0.11418702639639378,0.05554620269685984,0.0002530701458454132,0.03365994989871979,0.010271771112456918,0.10788654629141092,0.023211992345750332,-0.021321868523955345,-0.007714070379734039,-0.2202660832554102,-0.11952493339776993,0.003201189450919628,0.0003653871826827526,0.00020300131291151047,0.11418702639639378,0.05554620269685984,0.0,0.03365994989871979,0.0,0.11215103982541698,0.01687378866674205,-0.02914563496982714,-0.04448544284868339,-0.2162912910918755,-0.13192234775816525,0.006135923151542766,-0.003067961575771161,0.007669903939428124,0.1182869629769593,0.023826471366679036,-0.030509173447947555,-0.05082589677194409,,,,,,
12.712199927000029,0.0,0.0,0.020725784867432664,0.07417649320975901,-0.06872233929727672,-0.058182078776263614,-0.10105308419035258,-0.9931782920930612,1.0,1.0,0.0,-0.0,0.30687107727372825,-0.0,0.3835888465921603,-0.2301533079552962,-0.0,0.0,0.0,-0.0,0.0,0.30687107727372825,0.0,0.3835888465921603,0.03371136635541916,-0.054518382996320724,0.06820137798786163,0.07628214359283447,0.19539949297904968,-0.05236177518963814,0.09189754724502563,0.0075562018901109695,0.0016291327774524689,-0.017863446846604347,-0.0316629633307457,0.1823001503944397,0.15934564173221588,0.34984564781188965,0.010871302569285035,0.1085434528067708,0.02542792446911335,-0.020199373364448547,-0.007000662386417389,-0.22095915395766497,-0.11892087757587433,0.0018890504725277424,0.0004072831943631172,-0.000277071725577116,0.11425730772316456,0.05726874340325594,0.0005665011703968048,0.0316108763217926,0.010871302569285035,0.1085434528067708,0.02542792446911335,-0.020199373364448547,-0.007000662386417389,-0.22095915395766497,-0.11892087757587433,0.0018890504725277424,0.0004072831943631172,-0.000277071725577116,0.11425730772316456,0.05726874340325594,0.0,0.0316108763217926,0.0015339807878858025,0.11215103982541698,0.021475731030399015,-0.02914563496982714,-0.03681553890925526,-0.22242721424341783,-0.13192234775816525,0.006135923151542766,-0.003067961575771161,0.007669903939428124,0.1182869629769593,0.029962394518221358,-0.030509173447947555,-0.041622012044630605,,,,,,
12.732425797000133,0.0,0.0,-0.14835298641951802,0.05999569303730508,-0.08290313946973066,-0.056112926248498785,-0.0969223271564979,-0.9937089121097784,1.0,1.0,0.15343553863686413,0.07671776931843206,0.2301533079552962,-0.0,0.3835888465921603,-0.15343553863686413,-0.0,0.0,0.0,-0.0,0.0,0.2301533079552962,0.0,0.4603066159105924,0.04032096266746521,-0.055423591285943985,0.05993660166859627,0.09998705238103867,0.20757286250591278,-0.04775362089276314,0.09209297597408295,-0.013918230310082436,0.0017124656587839127,-0.01773502677679062,-0.03377479314804077,0.17934057116508484,0.14743463695049286,0.33621177077293396,0.012523701647296548,0.10831715073436499,0.02336173038929701,-0.014273146167397499,-0.003957320004701614,-0.21980711538344622,-0.11887202039361,-0.003479557577520609,0.00042811641469597816,-0.00024496670812368393,0.11372935026884079,0.056528848595917225,-0.002411250025033951,0.02820240706205368,0.012523701647296548,0.10831715073436499,0.02336173038929701,-0.014273146167397499,-0.003957320004701614,-0.21980711538344622,-0.11887202039361,-0.003479557577520609,0.00042811641469597816,-0.00024496670812368393,0.11372935026884079,0.056528848595917225,-0.002411250025033951,0.02820240706205368,0.006135923151542766,0.11368502061330234,0.024543692606170175,-0.02914563496982714,-0.0322135965455983,-0.22549517581918943,-0.13038836697027945,0.006135923151542766,-0.003067961575771161,0.007669903939428124,0.1182869629769593,0.03456433688187832,-0.030509173447947555,-0.029350165741545073,,,,,,
12.752209397000115,0.0,0.0,-0.30870511144649704,-0.05999569303730508,-0.0272707695624114,-0.05712543190426928,-0.08670824485469443,-0.9945945733332597,1.0,1.0,0.15343553863686413,0.07671776931843206,0.07671776931843206,-0.0,0.2301533079552962,-0.15343553863686413,0.07671776931843206,-0.07671776931843206,-0.07671776931843206,-0.0,0.0,0.07671776931843206,0.0,0.6137421545474565,0.04962529242038727,-0.04885067418217659,0.06131567433476448,0.13922663033008575,0.22982312738895416,-0.04052114486694336,0.10117293894290924,-0.03066403791308403,-0.0020366497337818146,-0.024273552000522614,-0.03441888466477394,0.18481743335723877,0.1285959929227829,0.32008999586105347,0.014849784085527062,0.10996038001030684,0.023706498555839062,-0.004463251680135727,0.001605246216058731,-0.21799899637699127,-0.11660202965140343,-0.0076660094782710075,-0.0005091624334454536,-0.0018795980140566826,0.1135683273896575,0.05789806414395571,-0.007120911031961441,0.024171963334083557,0.014849784085527062,0.10996038001030684,0.023706498555839062,-0.004463251680135727,0.001605246216058731,-0.21799899637699127,-0.11660202965140343,-0.0076660094782710075,-0.0005091624334454536,-0.0018795980140566826,0.1135683273896575,0.05789806414395571,-0.007120911031961441,0.024171963334083557,0.007669903939428124,0.11521900140118814,0.026077673394055978,-0.02914563496982714,-0.026077673394055978,-0.2270291566070748,-0.12732040539450828,0.004601942363656963,-0.007669903939428124,0.007669903939428124,0.1182869629769593,0.036098317669764124,-0.030509173447947555,-0.018612300226345788,,,,,,
12.77323879100004,0.0,0.0,-0.30870511144649704,-0.05999569303730508,-0.0272707695624114,-0.05712543190426928,-0.08670824485469443,-0.9945945733332597,1.0,1.0,0.07671776931843206,-0.0,-0.0,-0.0,0.2301533079552962,-0.0,0.15343553863686413,0.0,-0.2301533079552962,-0.0,-0.07671776931843206,0.07671776931843206,0.0,0.5370243852290244,0.04261314868927002,-0.03808514401316643,0.0632452666759491,0.13178010284900665,0.2297339141368866,-0.01995321735739708,0.12554635107517242,-0.0470726415514946,-0.016536641865968704,-0.026339232921600342,-0.037622127681970596,0.1705881655216217,0.10574386268854141,0.3066965341567993,0.01309674815274775,0.11265176255255938,0.024188896641135216,-0.006324883550405502,0.0015829429030418396,-0.2128570144996047,-0.11050867661833763,-0.01176816038787365,-0.004134160466492176,-0.0023960182443261147,0.11276751663535833,0.05434074718505144,-0.012833943590521812,0.02082359790802002,0.01309674815274775,0.11265176255255938,0.024188896641135216,-0.006324883550405502,0.0015829429030418396,-0.2128570144996047,-0.11050867661833763,-0.01176816038787365,-0.004134160466492176,-0.0023960182443261147,0.11276751663535833,0.05434074718505144,-0.012833943590521812,0.02082359790802002,0.009203884727313927,0.11521900140118814,0.026077673394055978,-0.02914563496982714,-0.021475731030399015,-0.2270291566070748,-0.12425244381873712,0.004601942363656963,-0.010737865515199285,0.007669903939428124,0.11521900140118814,0.03763229845764948,-0.030509173447947555,-0.007874434711146502,left_knee,23,6.4,30,98,4
12.792363236000028,0.0,0.0,-0.15162547876700738,-0.10471975511965978,-0.23671027980173096,-0.06020574289275162,-0.0806144692970742,-0.994925412210726,1.0,1.0,0.07671776931843206,-0.0,-0.0,0.07671776931843206,0.2301533079552962,-0.0,0.2301533079552962,0.0,-0.07671776931843206,-0.0,-0.15343553863686413,0.0,0.0,0.5370243852290244,0.03041350282728672,-0.02946428582072258,0.08483435213565826,0.09970349818468094,0.21616999804973602,-0.008148808032274246,0.14745047688484192,-0.04103124886751175,-0.028403600677847862,-0.028289610520005226,-0.035626452416181564,0.13810701668262482,0.10606797784566879,0.30597954988479614,0.010046836687251925,0.11480697710067034,0.029586168006062508,-0.01434403471648693,-0.0018080361187458038,-0.209905912168324,-0.10503264516592026,-0.010257812216877937,-0.0071009001694619656,-0.0028836126439273357,0.11326643545180559,0.04622045997530222,-0.012752914801239967,0.020644351840019226,0.010046836687251925,0.11480697710067034,0.029586168006062508,-0.01434403471648693,-0.0018080361187458038,-0.209905912168324,-0.10503264516592026,-0.010257812216877937,-0.0071009001694619656,-0.0028836126439273357,0.11326643545180559,0.04622045997530222,-0.012752914801239967,0.020644351840019226,0.010737865515199285,0.11521900140118814,0.026077673394055978,-0.027611654181941336,-0.01687378866674205,-0.22549517581918943,-0.12118448224296552,0.004601942363656963,-0.010737865515199285,0.007669903939428124,0.11215103982541698,0.03763229845764948,-0.030509173447947555,0.0013294500161674244,,,,,,
12.812448811999957,0.0,0.0,-0.15162547876700738,-0.10471975511965978,-0.23671027980173096,-0.06020574289275162,-0.0806144692970742,-0.994925412210726,1.0,1.0,0.07671776931843206,-0.0,-0.0,0.2301533079552962,0.2301533079552962,0.07671776931843206,0.30687107727372825,0.0,0.0,-0.0,-0.07671776931843206,0.0,0.0,0.3835888465921603,0.028119875118136406,-0.02354254201054573,0.09267908334732056,0.09665749967098236,0.2153894156217575,0.008311089128255844,0.17762848734855652,-0.04006524756550789,-0.03151680529117584,-0.031220266595482826,-0.03571672365069389,0.1216517835855484,0.09498380869626999,0.2942052483558655,0.009473429759964347,0.11628741305321455,0.03154735080897808,-0.015105534344911575,-0.0020031817257404327,-0.20579093787819147,-0.09748814254999161,-0.010016311891376972,-0.00787920132279396,-0.0036162766627967358,0.11324386764317751,0.042106651701033115,-0.015523957088589668,0.01770077645778656,0.009473429759964347,0.11628741305321455,0.03154735080897808,-0.015105534344911575,-0.0020031817257404327,-0.20579093787819147,-0.09748814254999161,-0.010016311891376972,-0.00787920132279396,-0.0036162766627967358,0.11324386764317751,0.042106651701033115,-0.015523957088589668,0.01770077645778656,0.010737865515199285,0.11675298218907394,0.026077673394055978,-0.023009711818284817,-0.01380582709097089,-0.22549517581918943,-0.1135145783035374,0.003067961575771161,-0.010737865515199285,0.007669903939428124,0.11061705903753118,0.03763229845764948,-0.030509173447947555,0.00746537316771019,,,,,,
12.832615646000022,0.0,0.0,-0.19634954084936207,-0.09817477042468103,-0.33052172709642613,-0.06328029776472595,-0.07552809733209226,-0.9951337148485129,1.0,1.0,0.0,0.07671776931843206,-0.0,0.15343553863686413,0.07671776931843206,-0.0,0.2301533079552962,-0.2301533079552962,0.0,-0.15343553863686413,-0.15343553863686413,0.07671776931843206,0.0,0.30687107727372825,0.03195963054895401,-0.01267385482788086,0.10148784518241882,0.10833403468132019,0.2157643735408783,0.02685452252626419,0.19935595989227295,-0.05545692890882492,-0.031435076147317886,-0.03695259988307953,-0.03858667612075806,0.10815711319446564,0.07832856476306915,0.2756877541542053,0.010433368617668748,0.11900458484888077,0.03374954126775265,-0.012186400592327118,-0.0019094422459602356,-0.20115507952868938,-0.0920562744140625,-0.01386423222720623,-0.007858769036829472,-0.005049359984695911,0.11252637952566147,0.038732984103262424,-0.019687768071889877,0.013071402907371521,0.010433368617668748,0.11900458484888077,0.03374954126775265,-0.012186400592327118,-0.0019094422459602356,-0.20115507952868938,-0.0920562744140625,-0.01386423222720623,-0.007858769036829472,-0.005049359984695911,0.11252637952566147,0.038732984103262424,-0.019687768071889877,0.013071402907371521,0.010737865515199285,0.11675298218907394,0.026077673394055978,-0.019941750242513212,-0.012271846303085088,-0.22549517581918943,-0.10891263593988043,0.0,-0.010737865515199285,0.006135923151542766,0.10908307824964582,0.039166279245535285,-0.030509173447947555,0.012067315531367154,,,,,,
12.852669722999963,0.0,0.0,-0.21925698728178766,-0.06326818538479445,-0.15271630954950383,-0.06425999268721325,-0.06935999210683336,-0.9955198867098434,1.0,1.0,0.0,-0.0,-0.0,0.15343553863686413,-0.0,-0.0,0.15343553863686413,-0.15343553863686413,0.07671776931843206,-0.15343553863686413,0.0,0.0,0.0,0.15343553863686413,0.03356671333312988,-0.020265165716409683,0.09754255414009094,0.12181885540485382,0.22416800260543823,0.02933010458946228,0.21386829018592834,-0.07536468654870987,-0.02312188409268856,-0.04113081470131874,-0.03346555680036545,0.1062086671590805,0.06940509378910065,0.28462231159210205,0.010835139313712716,0.11710675712674856,0.03276321850717068,-0.00881519541144371,0.00019146502017974854,-0.20053618401288986,-0.08842819184064865,-0.018841171637177467,-0.00578047102317214,-0.006093913689255714,0.11380665935575962,0.03824587259441614,-0.021918635815382004,0.015305042266845703,0.010835139313712716,0.11710675712674856,0.03276321850717068,-0.00881519541144371,0.00019146502017974854,-0.20053618401288986,-0.08842819184064865,-0.018841171637177467,-0.00578047102317214,-0.006093913689255714,0.11380665935575962,0.03824587259441614,-0.021918635815382004,0.015305042266845703,0.010737865515199285,0.11675298218907394,0.026077673394055978,-0.01687378866674205,-0.012271846303085088,-0.22396119503130363,-0.10584467436410927,-0.003067961575771161,-0.006135923151542766,0.003067961575771161,0.10908307824964582,0.039166279245535285,-0.030509173447947555,0.012067315531367154,,,,,,
12.873743080000168,0.0,0.0,-0.21925698728178766,-0.06326818538479445,-0.15271630954950383,-0.06425999268721325,-0.06935999210683336,-0.9955198867098434,1.0,1.0,0.0,-0.0,-0.0,-0.0,-0.0,0.07671776931843206,0.2301533079552962,-0.15343553863686413,0.2301533079552962,-0.15343553863686413,0.0,0.0,0.0,0.07671776931843206,0.034439101815223694,-0.02022380381822586,0.09173230826854706,0.1330386847257614,0.2327808141708374,0.04253401607275009,0.22447189688682556,-0.07819801568984985,-0.01754353940486908,-0.05455267056822777,-0.02960944175720215,0.10508164763450623,0.05828659236431122,0.29138267040252686,0.011053236434236169,0.11711709760129452,0.031310657039284706,-0.006010238081216812,0.002344667911529541,-0.1972352061420679,-0.08577729016542435,-0.019549503922462463,-0.00438588485121727,-0.009449377655982971,0.11477068811655045,0.03796411771327257,-0.02469826117157936,0.016995131969451904,0.011053236434236169,0.11711709760129452,0.031310657039284706,-0.006010238081216812,0.002344667911529541,-0.1972352061420679,-0.08577729016542435,-0.019549503922462463,-0.00438588485121727,-0.009449377655982971,0.11477068811655045,0.03796411771327257,-0.02469826117157936,0.016995131969451904,0.010737865515199285,0.11521900140118814,0.026077673394055978,-0.01687378866674205,-0.012271846303085088,-0.22396119503130363,-0.1012427320004523,-0.006135923151542766,-0.003067961575771161,-0.0015339807878858025,0.11061705903753118,0.039166279245535285,-0.030509173447947555,0.013601296319252512,right_knee,13,6.5,30,1070,1
12.892686342000161,0.0,0.0,-0.26725354171163174,0.02945243112740431,-0.09490227807719166,-0.06530636044635367,-0.06224512480043083,-0.9959219968068933,1.0,1.0,0.0,-0.07671776931843206,-0.0,-0.0,-0.0,0.07671776931843206,0.2301533079552962,-0.15343553863686413,0.07671776931843206,-0.15343553863686413,0.07671776931843206,0.0,0.0,0.0,0.03784419596195221,-0.009961459785699844,0.07872454822063446,0.13746726512908936,0.21900196373462677,0.0670325979590416,0.24443620443344116,-0.09488678723573685,-0.010682713240385056,-0.060597650706768036,-0.030256446450948715,0.10653318464756012,0.031821608543395996,0.2707943320274353,0.011904509970918298,0.11968268360942602,0.028058717027306557,-0.004903092980384827,-0.001100044697523117,-0.19111056067049503,-0.08078621327877045,-0.02372169680893421,-0.002670678310096264,-0.010960622690618038,0.1146089369431138,0.038327001966536045,-0.031314507126808167,0.011848047375679016,0.011904509970918298,0.11968268360942602,0.028058717027306557,-0.004903092980384827,-0.001100044697523117,-0.19111056067049503,-0.08078621327877045,-0.02372169680893421,-0.002670678310096264,-0.010960622690618038,0.1146089369431138,0.038327001966536045,-0.031314507126808167,0.011848047375679016,0.012271846303085088,0.11521900140118814,0.026077673394055978,-0.01687378866674205,-0.012271846303085088,-0.22089323345553247,-0.09664078963679534,-0.009203884727313927,-0.0015339807878858025,-0.004601942363656963,0.11061705903753118,0.039166279245535285,-0.030509173447947555,0.012067315531367154,,,,,,
12.913895400000001,0.0,0.0,-0.26725354171163174,0.02945243112740431,-0.09490227807719166,-0.06530636044635367,-0.06224512480043083,-0.9959219968068933,1.0,1.0,0.15343553863686413,-0.07671776931843206,-0.0,-0.0,-0.0,0.15343553863686413,0.07671776931843206,-0.15343553863686413,0.07671776931843206,-0.0,0.0,0.0,0.0,-0.07671776931843206,0.042898207902908325,-0.00973876565694809,0.08083674311637878,0.1432902216911316,0.21599720418453217,0.07770147174596786,0.24897730350494385,-0.10912324488162994,-0.009440496563911438,-0.06154920905828476,-0.03005841001868248,0.10782690346240997,0.02571640908718109,0.2739233672618866,0.013168012956157327,0.11973835714161396,0.028586765751242638,-0.0034473538398742676,-0.0018512345850467682,-0.18844334222376347,-0.07965093851089478,-0.027280811220407486,-0.0023601241409778595,-0.011198512278497219,0.11465844605118036,0.03865043167024851,-0.03284080699086189,0.01263030618429184,0.013168012956157327,0.11973835714161396,0.028586765751242638,-0.0034473538398742676,-0.0018512345850467682,-0.18844334222376347,-0.07965093851089478,-0.027280811220407486,-0.0023601241409778595,-0.011198512278497219,0.11465844605118036,0.03865043167024851,-0.03284080699086189,0.01263030618429184,0.01380582709097089,0.11368502061330234,0.026077673394055978,-0.01687378866674205,-0.012271846303085088,-0.21782527187976086,-0.09510680884890954,-0.012271846303085088,-0.0015339807878858025,-0.004601942363656963,0.11061705903753118,0.039166279245535285,-0.030509173447947555,0.010533334743481351,,,,,,
12.93342257800009,0.0,0.0,-0.2083486794568231,0.020725784867432664,-0.10471975511965978,-0.06430600561674679,-0.05818162412943758,-0.9962327219356328,1.0,1.0,0.0,-0.0,-0.0,-0.0,-0.0,0.15343553863686413,0.07671776931843206,-0.07671776931843206,0.0,-0.07671776931843206,0.07671776931843206,0.0,0.0,-0.07671776931843206,0.04408128559589386,-0.01629088819026947,0.08267973363399506,0.1411953866481781,0.2181214690208435,0.0828019455075264,0.2510317265987396,-0.10345836728811264,-0.00847272202372551,-0.06746718287467957,-0.023006949573755264,0.10376697778701782,0.026965081691741943,0.27832135558128357,0.01346378237940371,0.11810032650828362,0.029047513380646706,-0.00397106260061264,-0.001320168375968933,-0.18716822378337383,-0.07913733273744583,-0.02586459182202816,-0.0021181805059313774,-0.01267800573259592,0.11642131116241217,0.03763545025140047,-0.03252863883972168,0.013729803264141083,0.01346378237940371,0.11810032650828362,0.029047513380646706,-0.00397106260061264,-0.001320168375968933,-0.18716822378337383,-0.07913733273744583,-0.02586459182202816,-0.0021181805059313774,-0.01267800573259592,0.11642131116241217,0.03763545025140047,-0.03252863883972168,0.013729803264141083,0.015339807878856249,0.11368502061330234,0.026077673394055978,-0.01687378866674205,-0.012271846303085088,-0.2147573103039897,-0.09357282806102418,-0.015339807878856249,-0.0015339807878858025,-0.006135923151542766,0.11368502061330234,0.039166279245535285,-0.030509173447947555,0.008999353955595549,,,,,,
12.953437674000043,0.0,0.0,-0.3937899124812206,0.0545415391248228,-0.025089107997418487,-0.06325931244821582,-0.047954640081712,-0.9968443268049493,1.0,1.0,0.07671776931843206,-0.07671776931843206,-0.0,-0.0,0.07671776931843206,0.2301533079552962,0.2301533079552962,-0.15343553863686413,0.0,-0.15343553863686413,0.07671776931843206,0.07671776931843206,0.0,-0.07671776931843206,0.05018027871847153,-0.008894432336091995,0.06957106292247772,0.1513012945652008,0.20305900275707245,0.10685949772596359,0.2570958733558655,-0.11307168751955032,0.0034251734614372253,-0.07966379821300507,-0.019130602478981018,0.12378072738647461,0.01879015564918518,0.27103471755981445,0.014988530660048127,0.11994944047182798,0.025770345702767372,-0.0014445856213569641,-0.005085784941911697,-0.18115383572876453,-0.07762129604816437,-0.02826792187988758,0.0008562933653593063,-0.015727159567177296,0.11739039793610573,0.04263888765126467,-0.03457237035036087,0.011908143758773804,0.014988530660048127,0.11994944047182798,0.025770345702767372,-0.0014445856213569641,-0.005085784941911697,-0.18115383572876453,-0.07762129604816437,-0.02826792187988758,0.0008562933653593063,-0.015727159567177296,0.11739039793610573,0.04263888765126467,-0.03457237035036087,0.011908143758773804,0.015339807878856249,0.11215103982541698,0.026077673394055978,-0.01687378866674205,-0.010737865515199285,-0.21015536794033274,-0.08897088569736722,-0.018407769454627854,-0.0015339807878858025,-0.009203884727313927,0.11368502061330234,0.04070026003342109,-0.030509173447947555,0.00746537316771019,,,,,,
12.974498696999945,0.0,0.0,-0.3937899124812206,0.0545415391248228,-0.025089107997418487,-0.06325931244821582,-0.047954640081712,-0.9968443268049493,1.0,1.0,0.0,-0.0,-0.0,0.15343553863686413,0.15343553863686413,0.15343553863686413,0.4603066159105924,-0.2301533079552962,0.0,-0.15343553863686413,0.0,0.0,0.0,0.0,0.03894566744565964,-0.00016613304615020752,0.05942576006054878,0.14859335124492645,0.1760864555835724,0.1324062943458557,0.2816380560398102,-0.13561871647834778,0.00821169838309288,-0.0813211128115654,-0.01701032556593418,0.13334333896636963,0.0088825523853302,0.25753113627433777,0.012179877841845155,0.12213151529431343,0.023234019987285137,-0.0021215714514255524,-0.011828921735286713,-0.1747671365737915,-0.07148575037717819,-0.033904679119586945,0.00205292459577322,-0.01614148821681738,0.11792046716436744,0.04502954054623842,-0.037049271166324615,0.008532248437404633,0.012179877841845155,0.12213151529431343,0.023234019987285137,-0.0021215714514255524,-0.011828921735286713,-0.1747671365737915,-0.07148575037717819,-0.033904679119586945,0.00205292459577322,-0.01614148821681738,0.11792046716436744,0.04502954054623842,-0.037049271166324615,0.008532248437404633,0.012271846303085088,0.11215103982541698,0.026077673394055978,-0.01380582709097089,-0.007669903939428124,-0.20555342557667577,-0.07976700097005329,-0.021475731030399015,-0.0015339807878858025,-0.012271846303085088,0.11521900140118814,0.04070026003342109,-0.030509173447947555,0.00746537316771019,left_ankle,24,6.6,29,38,1
12.993569550000075,0.0,0.0,-0.3621558197888234,0.15271630954950383,0.28907015736156083,-0.05815245809109233,-0.03264699401605183,-0.997773754615584,1.0,1.0,-0.15343553863686413,-0.0,-0.0,0.2301533079552962,-0.0,0.2301533079552962,0.30687107727372825,-0.07671776931843206,0.0,-0.0,0.07671776931843206,0.0,0.0,0.0,0.03362435847520828,0.011228224262595177,0.052675921469926834,0.13873988389968872,0.13602834939956665,0.15866747498512268,0.308430552482605,-0.13911952078342438,0.005129901692271233,-0.07198306173086166,-0.01938442885875702,0.1253296136856079,-0.001017346978187561,0.23985108733177185,0.010849550599232316,0.12498010462149978,0.02154656033962965,-0.004584938287734985,-0.021843448281288147,-0.16820184141397476,-0.06478762626647949,-0.034779880195856094,0.0012824754230678082,-0.013806975446641445,0.11732694134116173,0.04302610922604799,-0.039524246007204056,0.004112236201763153,0.010849550599232316,0.12498010462149978,0.02154656033962965,-0.004584938287734985,-0.021843448281288147,-0.16820184141397476,-0.06478762626647949,-0.034779880195856094,0.0012824754230678082,-0.013806975446641445,0.11732694134116173,0.04302610922604799,-0.039524246007204056,0.004112236201763153,0.010737865515199285,0.11215103982541698,0.027611654181941336,-0.009203884727313927,-0.007669903939428124,-0.19941750242513345,-0.07363107781851097,-0.023009711818284817,-0.0015339807878858025,-0.012271846303085088,0.11521900140118814,0.04070026003342109,-0.030509173447947555,0.00746537316771019,,,,,,
13.013705569999956,0.0,0.0,-0.3621558197888234,0.15271630954950383,0.28907015736156083,-0.05815245809109233,-0.03264699401605183,-0.997773754615584,1.0,1.0,-0.07671776931843206,-0.0,0.15343553863686413,0.2301533079552962,-0.0,0.30687107727372825,0.15343553863686413,-0.07671776931843206,0.0,-0.0,0.0,0.15343553863686413,0.0,0.0,0.026630977168679237,0.010238606482744217,0.054917413741350174,0.1395108997821808,0.12232036888599396,0.17906633019447327,0.31227821111679077,-0.12561513483524323,0.006287850439548492,-0.07258447259664536,-0.010014859959483147,0.13170726597309113,0.0067977458238601685,0.23895962536334991,0.009101205272600055,0.12473270017653704,0.022106933407485485,-0.004392184317111969,-0.02527044340968132,-0.16310212761163712,-0.06382571160793304,-0.031403783708810806,0.001571962609887123,-0.013957328163087368,0.1196693335659802,0.0446205222979188,-0.03757047280669212,0.003889370709657669,0.009101205272600055,0.12473270017653704,0.022106933407485485,-0.004392184317111969,-0.02527044340968132,-0.16310212761163712,-0.06382571160793304,-0.031403783708810806,0.001571962609887123,-0.013957328163087368,0.1196693335659802,0.0446205222979188,-0.03757047280669212,0.003889370709657669,0.010737865515199285,0.11215103982541698,0.0322135965455983,-0.004601942363656963,-0.007669903939428124,-0.1932815792735907,-0.07056311624273937,-0.024543692606170175,-0.003067961575771161,-0.012271846303085088,0.11521900140118814,0.04376822160919225,-0.030509173447947555,0.00746537316771019,,,,,,
13.035455008000099,0.0,0.0,-0.37088246604879505,0.10253809355466686,0.34143003492139073,-0.05613680065228362,-0.02041338205537586,-0.9982143825078794,1.0,1.0,0.0,-0.0,0.15343553863686413,0.30687107727372825,0.07671776931843206,0.5370243852290244,0.07671776931843206,-0.15343553863686413,-0.15343553863686413,0.15343553863686413,-0.07671776931843206,0.07671776931843206,0.0,0.0,0.02793307416141033,0.015827512368559837,0.050820913165807724,0.1495755910873413,0.11645358800888062,0.20574969053268433,0.31876835227012634,-0.1286880224943161,0.0004889648407697678,-0.07094770669937134,-0.01305476389825344,0.1290811151266098,0.01258687674999237,0.2417098879814148,0.009426729520782828,0.12612992664799094,0.021082808263599873,-0.0018760114908218384,-0.026737138628959656,-0.15643128752708435,-0.06220317631959915,-0.032172005623579025,0.00012224121019244194,-0.013548136688768864,0.11890935758128762,0.043963984586298466,-0.03612319007515907,0.004576936364173889,0.009426729520782828,0.12612992664799094,0.021082808263599873,-0.0018760114908218384,-0.026737138628959656,-0.15643128752708435,-0.06220317631959915,-0.032172005623579025,0.00012224121019244194,-0.013548136688768864,0.11890935758128762,0.043963984586298466,-0.03612319007515907,0.004576936364173889,0.010737865515199285,0.11368502061330234,0.0322135965455983,0.0015339807878858025,-0.006135923151542766,-0.1794757521826198,-0.06902913545485401,-0.027611654181941336,-0.007669903939428124,-0.009203884727313927,0.11215103982541698,0.04530220239707761,-0.030509173447947555,0.00746537316771019,,,,,,
13.05381857500015,0.0,0.0,-0.49632800603588745,0.07526732399225546,0.22252947962927702,-0.05303996637267197,-0.005099996766603074,-0.998579366900882,1.0,1.0,0.0,0.2301533079552962,0.07671776931843206,-0.0,0.15343553863686413,0.5370243852290244,0.2301533079552962,-0.07671776931843206,-0.2301533079552962,-0.0,-0.15343553863686413,0.0,0.0,-0.07671776931843206,0.030173318460583687,0.03124067932367325,0.041240494698286057,0.14088395237922668,0.0732027143239975,0.24123618006706238,0.3233252465724945,-0.13542750477790833,0.009122032672166824,-0.0741768553853035,-0.009621668606996536,0.14058101177215576,0.01772215962409973,0.2544204294681549,0.009986790595576167,0.1299832183867693,0.018687703646719456,-0.004048921167850494,-0.037549857050180435,-0.14755966514348984,-0.06106395274400711,-0.03385687619447708,0.002280508168041706,-0.014355423860251904,0.11976763140410185,0.046838958747684956,-0.03483936935663223,0.007754571735858917,0.009986790595576167,0.1299832183867693,0.018687703646719456,-0.004048921167850494,-0.037549857050180435,-0.14755966514348984,-0.06106395274400711,-0.03385687619447708,0.002280508168041706,-0.014355423860251904,0.11976763140410185,0.046838958747684956,-0.03483936935663223,0.007754571735858917,0.010737865515199285,0.1182869629769593,0.0337475773334841,0.0015339807878858025,-0.003067961575771161,-0.17180584824319167,-0.06442719309119704,-0.02914563496982714,-0.010737865515199285,-0.009203884727313927,0.11061705903753118,0.04530220239707761,-0.030509173447947555,0.005931392379824388,,,,,,
13.074936616000059,0.0,0.0,-0.49632800603588745,0.07526732399225546,0.22252947962927702,-0.05303996637267197,-0.005099996766603074,-0.998579366900882,1.0,1.0,0.0,0.2301533079552962,-0.0,0.15343553863686413,-0.0,0.3835888465921603,0.2301533079552962,0.0,-0.07671776931843206,0.07671776931843206,0.0,0.07671776931843206,0.0,0.2301533079552962,0.0225443784147501,0.04113021865487099,0.03177744895219803,0.13023392856121063,0.05381740257143974,0.2705632746219635,0.3473292291164398,-0.1356324851512909,0.00369463674724102,-0.06459285318851471,-0.019648678600788116,0.1319243460893631,0.006115809082984924,0.23764273524284363,0.00807955558411777,0.13245560321956873,0.01632194221019745,-0.0067114271223545074,-0.042396184988319874,-0.14022789150476456,-0.05506295710802078,-0.03390812128782272,0.000923659186810255,-0.011959423311054707,0.11726087890565395,0.04467479232698679,-0.037740956991910934,0.0035601481795310974,0.00807955558411777,0.13245560321956873,0.01632194221019745,-0.0067114271223545074,-0.042396184988319874,-0.14022789150476456,-0.05506295710802078,-0.03390812128782272,0.000923659186810255,-0.011959423311054707,0.11726087890565395,0.04467479232698679,-0.037740956991910934,0.0035601481795310974,0.010737865515199285,0.12288890534061626,0.0337475773334841,0.004601942363656963,-0.003067961575771161,-0.16413594430376355,-0.05982525072754008,-0.02914563496982714,-0.010737865515199285,-0.007669903939428124,0.10908307824964582,0.04683618318496341,-0.030509173447947555,0.010533334743481351,right_ankle,14,6.5,29,38,1
13.093875433999983,0.0,0.0,-0.47451139038595835,0.013089969389957472,0.28034351110158917,-0.053036683306212855,0.012239234609126043,-0.9985175568611998,1.0,1.0,0.0,0.15343553863686413,0.07671776931843206,-0.0,-0.07671776931843206,0.3835888465921603,0.15343553863686413,0.0,0.0,-0.0,-0.07671776931843206,0.07671776931843206,0.0,0.15343553863686413,0.020756220445036888,0.031237922608852386,0.035262975841760635,0.13639479875564575,0.05973692238330841,0.27869898080825806,0.34766966104507446,-0.1261589527130127,0.0019445233047008514,-0.07819533348083496,-0.015086857602000237,0.1443021297454834,0.020330771803855896,0.2221812903881073,0.007632516091689467,0.12998252920806408,0.0171933239325881,-0.0051712095737457275,-0.04091630503535271,-0.13819396495819092,-0.05497784912586212,-0.031539738178253174,0.00048613082617521286,-0.01536004338413477,0.11840133415535092,0.047769238241016865,-0.03418721631169319,-0.0003052130341529846,0.007632516091689467,0.12998252920806408,0.0171933239325881,-0.0051712095737457275,-0.04091630503535271,-0.13819396495819092,-0.05497784912586212,-0.031539738178253174,0.00048613082617521286,-0.01536004338413477,0.11840133415535092,0.047769238241016865,-0.03418721631169319,-0.0003052130341529846,0.010737865515199285,0.12595686691638786,0.035281558121369905,0.004601942363656963,-0.004601942363656963,-0.15646604036433542,-0.05675728915176892,-0.02914563496982714,-0.010737865515199285,-0.007669903939428124,0.10908307824964582,0.04837016397284921,-0.030509173447947555,0.012067315531367154,,,,,,
13.114046100999985,0.0,0.0,-0.47451139038595835,0.013089969389957472,0.28034351110158917,-0.053036683306212855,0.012239234609126043,-0.9985175568611998,1.0,1.0,0.0,0.15343553863686413,-0.0,-0.0,-0.07671776931843206,0.3835888465921603,0.15343553863686413,0.0,0.0,-0.0,0.0,0.0,0.0,0.07671776931843206,0.023555239662528038,0.03832276538014412,0.0336662121117115,0.13717792928218842,0.054118141531944275,0.3033829927444458,0.35851436853408813,-0.12802495062351227,-0.0010085664689540863,-0.08042795956134796,-0.01681998372077942,0.13680768013000488,0.01812678575515747,0.23016119003295898,0.008332270896062255,0.131753739900887,0.016794133000075817,-0.004975426942110062,-0.04232100024819374,-0.13202296197414398,-0.052266672253608704,-0.03200623765587807,-0.0002521416172385216,-0.01591819990426302,0.11796805262565613,0.045895625837147236,-0.0347382128238678,0.0016897618770599365,0.008332270896062255,0.131753739900887,0.016794133000075817,-0.004975426942110062,-0.04232100024819374,-0.13202296197414398,-0.052266672253608704,-0.03200623765587807,-0.0002521416172385216,-0.01591819990426302,0.11796805262565613,0.045895625837147236,-0.0347382128238678,0.0016897618770599365,0.012271846303085088,0.12902482849215902,0.035281558121369905,0.004601942363656963,-0.006135923151542766,-0.1472621556370215,-0.053689327575997314,-0.02914563496982714,-0.010737865515199285,-0.007669903939428124,0.10908307824964582,0.04837016397284921,-0.030509173447947555,0.015135277107138315,,,,,,
13.134177622000152,0.0,0.0,-0.5028729907308662,0.12217304763960307,0.2007128639793479,-0.04997092292665785,0.026515183593736818,-0.9983986437795518,1.0,1.0,0.07671776931843206,0.15343553863686413,-0.0,-0.0,-0.07671776931843206,0.4603066159105924,0.2301533079552962,0.0,0.07671776931843206,-0.0,0.0,0.07671776931843206,0.0,0.07671776931843206,0.022565850988030434,0.037180978804826736,0.01752764731645584,0.11279401183128357,0.01319006085395813,0.34507739543914795,0.36938604712486267,-0.12220234423875809,0.016590427607297897,-0.08220365643501282,-0.014816215261816978,0.13736967742443085,0.022830531001091003,0.23908501863479614,0.008084923727437854,0.13146829325705767,0.012759491801261902,-0.011071406304836273,-0.05255302041769028,-0.12159936130046844,-0.04954875260591507,-0.030550586059689522,0.004147606901824474,-0.016362124122679234,0.11846899474039674,0.04603612516075373,-0.033562276512384415,0.003920719027519226,0.008084923727437854,0.13146829325705767,0.012759491801261902,-0.011071406304836273,-0.05255302041769028,-0.12159936130046844,-0.04954875260591507,-0.030550586059689522,0.004147606901824474,-0.016362124122679234,0.11846899474039674,0.04603612516075373,-0.033562276512384415,0.003920719027519226,0.012271846303085088,0.13055880928004437,0.035281558121369905,0.004601942363656963,-0.009203884727313927,-0.13805827090970757,-0.04908738521234035,-0.02914563496982714,-0.006135923151542766,-0.007669903939428124,0.10908307824964582,0.04990414476073457,-0.028975192660062196,0.016669257895024117,,,,,,
13.158019877000015,0.0,0.0,-0.421060682043632,0.11999138607461016,-0.09381144729469522,-0.04593259794358333,0.036746078354866665,-0.9982684619738776,1.0,1.0,0.0,-0.0,-0.0,0.07671776931843206,-0.07671776931843206,0.4603066159105924,0.2301533079552962,0.0,0.15343553863686413,-0.0,0.0,0.0,0.07671776931843206,0.0,0.031239816918969154,0.04004319757223129,0.025679897516965866,0.09779977053403854,-0.004027277231216431,0.3740728795528412,0.380237340927124,-0.14069610834121704,0.02349964529275894,-0.07566236704587936,-0.021878642961382866,0.1146397739648819,0.027433767914772034,0.21560439467430115,0.010253415210172534,0.1321838479489088,0.014797554351389408,-0.01481996662914753,-0.05685735493898392,-0.11435049027204514,-0.04683592915534973,-0.03517402708530426,0.005874911323189735,-0.01472680177539587,0.11670338781550527,0.04035364929586649,-0.03241146728396416,-0.0019494369626045227,0.010253415210172534,0.1321838479489088,0.014797554351389408,-0.01481996662914753,-0.05685735493898392,-0.11435049027204514,-0.04683592915534973,-0.03517402708530426,0.005874911323189735,-0.01472680177539587,0.11670338781550527,0.04035364929586649,-0.03241146728396416,-0.0019494369626045227,0.012271846303085088,0.13055880928004437,0.03681553890925526,0.006135923151542766,-0.009203884727313927,-0.12885438618239364,-0.04448544284868339,-0.02914563496982714,-0.003067961575771161,-0.007669903939428124,0.10908307824964582,0.04990414476073457,-0.028975192660062196,0.016669257895024117,,,,,,
13.17530792499997,0.0,0.0,-0.421060682043632,0.11999138607461016,-0.09381144729469522,-0.04593259794358333,0.036746078354866665,-0.9982684619738776,1.0,1.0,0.0,0.07671776931843206,-0.0,-0.0,-0.0,0.4603066159105924,0.15343553863686413,0.0,0.15343553863686413,-0.07671776931843206,0.0,0.07671776931843206,0.07671776931843206,0.07671776931843206,0.028313444927334785,0.0492372140288353,0.017171356827020645,0.09381724894046783,-0.017707914113998413,0.4044419527053833,0.3895581364631653,-0.13769249618053436,0.02534957230091095,-0.07681639492511749,-0.021997608244419098,0.11507295072078705,0.034192830324172974,0.21672342717647552,0.009521822212263942,0.1344823520630598,0.012670419178903103,-0.015815597027540207,-0.06027751415967941,-0.1067582219839096,-0.044505730271339417,-0.03442312404513359,0.006337393075227737,-0.015015308745205402,0.11667364649474621,0.04046194348484278,-0.030721701681613922,-0.0016696788370609283,0.009521822212263942,0.1344823520630598,0.012670419178903103,-0.015815597027540207,-0.06027751415967941,-0.1067582219839096,-0.044505730271339417,-0.03442312404513359,0.006337393075227737,-0.015015308745205402,0.11667364649474621,0.04046194348484278,-0.030721701681613922,-0.0016696788370609283,0.012271846303085088,0.13362677085581598,0.03681553890925526,0.006135923151542766,-0.009203884727313927,-0.11965050145508016,-0.04141748127291223,-0.02914563496982714,-0.003067961575771161,-0.009203884727313927,0.10908307824964582,0.05143812554862037,-0.027441211872176394,0.018203238682909476,left_hip_pitch,22,6.4,30,1137,6
13.194221725000034,0.0,0.0,-0.38069994309126315,0.08835729338221293,-0.22362031041177347,-0.0418287651656779,0.05203090301096519,-0.9977690812690971,1.0,1.0,0.0,0.15343553863686413,-0.0,-0.0,-0.0,0.3835888465921603,0.2301533079552962,0.0,0.0,-0.07671776931843206,0.0,0.07671776931843206,0.07671776931843206,0.07671776931843206,0.030032197013497353,0.043503809720277786,0.024556852877140045,0.08971595019102097,-0.014925703406333923,0.421574205160141,0.3968489170074463,-0.15112408995628357,0.023590270429849625,-0.08044005185365677,-0.02949851006269455,0.10078737139701843,0.04246009141206741,0.1977633535861969,0.009951510233804584,0.13304900098592043,0.014516793191432953,-0.016840921714901924,-0.05958196148276329,-0.10247515887022018,-0.042683035135269165,-0.03778102248907089,0.005897567607462406,-0.01592122297734022,0.11479842104017735,0.03689054865390062,-0.028654886409640312,-0.006409697234630585,0.009951510233804584,0.13304900098592043,0.014516793191432953,-0.016840921714901924,-0.05958196148276329,-0.10247515887022018,-0.042683035135269165,-0.03778102248907089,0.005897567607462406,-0.01592122297734022,0.11479842104017735,0.03689054865390062,-0.028654886409640312,-0.006409697234630585,0.012271846303085088,0.13516075164370134,0.03681553890925526,0.006135923151542766,-0.009203884727313927,-0.11198059751565159,-0.03681553890925526,-0.02914563496982714,-0.003067961575771161,-0.010737865515199285,0.10754909746176002,0.052972106336506175,-0.025907231084291035,0.019737219470795278,,,,,,
13.214373430000023,0.0,0.0,-0.38069994309126315,0.08835729338221293,-0.22362031041177347,-0.0418287651656779,0.05203090301096519,-0.9977690812690971,1.0,1.0,0.0,-0.0,-0.0,-0.0,-0.07671776931843206,0.3835888465921603,0.15343553863686413,0.0,0.0,-0.07671776931843206,-0.07671776931843206,0.0,0.0,0.0,0.031907446682453156,0.04122490435838699,0.03143305331468582,0.08424583077430725,-0.01298261433839798,0.43814000487327576,0.40095055103302,-0.15221290290355682,0.023261185735464096,-0.08114388585090637,-0.033839572221040726,0.08654718101024628,0.05333844572305679,0.17839060723781586,0.010420322651043534,0.13247927464544773,0.016235843300819397,-0.018208451569080353,-0.059096189215779305,-0.09833370894193649,-0.04165762662887573,-0.038053225725889206,0.005815296433866024,-0.016097181476652622,0.1137131555005908,0.033330501057207584,-0.025935297831892967,-0.011252883821725845,0.010420322651043534,0.13247927464544773,0.016235843300819397,-0.018208451569080353,-0.059096189215779305,-0.09833370894193649,-0.04165762662887573,-0.038053225725889206,0.005815296433866024,-0.016097181476652622,0.1137131555005908,0.033330501057207584,-0.025935297831892967,-0.011252883821725845,0.012271846303085088,0.13516075164370134,0.03681553890925526,0.006135923151542766,-0.012271846303085088,-0.10431069357622347,-0.0337475773334841,-0.02914563496982714,-0.0015339807878858025,-0.012271846303085088,0.10754909746176002,0.052972106336506175,-0.025907231084291035,0.019737219470795278,,,,,,
13.234581375000062,0.0,0.0,-0.3272492347489368,0.08617563181722002,-0.24870941840919197,-0.0387922157807655,0.061250867022261304,-0.997368284679155,1.0,1.0,0.0,-0.0,-0.0,-0.0,-0.15343553863686413,0.3835888465921603,0.15343553863686413,-0.07671776931843206,0.07671776931843206,-0.0,0.0,0.0,0.0,0.0,0.03140782564878464,0.03843752667307854,0.043369557708501816,0.07785488665103912,-0.008106894791126251,0.4572985768318176,0.40661054849624634,-0.15627822279930115,0.0186966173350811,-0.07877694815397263,-0.03714475780725479,0.06660869717597961,0.058135829865932465,0.18538114428520203,0.010295417392626405,0.13178243022412062,0.019219969399273396,-0.019806187599897385,-0.05787725932896137,-0.09354406595230103,-0.04024262726306915,-0.03906955569982529,0.004674154333770275,-0.015505447052419186,0.11288685910403728,0.02834588009864092,-0.02473595179617405,-0.009505249559879303,0.010295417392626405,0.13178243022412062,0.019219969399273396,-0.019806187599897385,-0.05787725932896137,-0.09354406595230103,-0.04024262726306915,-0.03906955569982529,0.004674154333770275,-0.015505447052419186,0.11288685910403728,0.02834588009864092,-0.02473595179617405,-0.009505249559879303,0.012271846303085088,0.13516075164370134,0.03681553890925526,0.006135923151542766,-0.015339807878856249,-0.09664078963679534,-0.03067961575771294,-0.03067961575771294,-0.0015339807878858025,-0.012271846303085088,0.10754909746176002,0.052972106336506175,-0.024373250296405233,0.019737219470795278,,,,,,
13.254487917000006,0.0,0.0,-0.18980455615438332,0.1439896632895322,-0.09381144729469522,-0.035714694777064154,0.06938854985258178,-0.9969501942054763,1.0,1.0,0.0,-0.07671776931843206,-0.0,-0.0,-0.2301533079552962,0.3835888465921603,0.07671776931843206,0.0,0.0,-0.0,0.0,0.0,0.07671776931843206,0.0,0.026005009189248085,0.03597389534115791,0.056462567299604416,0.060130923986434937,9.424984455108643e-06,0.4803515076637268,0.4016566872596741,-0.15513227880001068,0.013407275080680847,-0.06355617195367813,-0.03942032530903816,0.04507084935903549,0.05270833522081375,0.1629224717617035,0.008944713277742267,0.13116652239114046,0.022493221797049046,-0.02423717826604843,-0.05584817938506603,-0.08778083324432373,-0.04148109257221222,-0.03878306970000267,0.003351818770170212,-0.011700253002345562,0.11231796722859144,0.022961418144404888,-0.026092825457453728,-0.015119917690753937,0.008944713277742267,0.13116652239114046,0.022493221797049046,-0.02423717826604843,-0.05584817938506603,-0.08778083324432373,-0.04148109257221222,-0.03878306970000267,0.003351818770170212,-0.011700253002345562,0.11231796722859144,0.022961418144404888,-0.026092825457453728,-0.015119917690753937,0.012271846303085088,0.13362677085581598,0.03681553890925526,0.006135923151542766,-0.018407769454627854,-0.09050486648525302,-0.02914563496982714,-0.03067961575771294,-0.0015339807878858025,-0.012271846303085088,0.10754909746176002,0.052972106336506175,-0.02283926950851943,0.019737219470795278,,,,,,
13.275930249000112,0.0,0.0,-0.18980455615438332,0.1439896632895322,-0.09381144729469522,-0.035714694777064154,0.06938854985258178,-0.9969501942054763,1.0,1.0,0.0,-0.0,-0.0,-0.0,-0.07671776931843206,0.30687107727372825,-0.0,0.0,0.0,-0.0,0.0,0.0,0.07671776931843206,0.0,0.02039334364235401,0.03683331608772278,0.061717335134744644,0.05181974917650223,0.007526770234107971,0.4966024160385132,0.3959345817565918,-0.14735201001167297,0.010112602263689041,-0.06400718539953232,-0.039052996784448624,0.04273906350135803,0.057766109704971313,0.15931284427642822,0.007541796891018748,0.13138137757778168,0.023806913755834103,-0.02631497196853161,-0.05396884307265282,-0.08371810615062714,-0.04291161894798279,-0.03683800250291824,0.0025281505659222603,-0.011813006363809109,0.11240979935973883,0.022378471679985523,-0.024828381836414337,-0.016022324562072754,0.007541796891018748,0.13138137757778168,0.023806913755834103,-0.02631497196853161,-0.05396884307265282,-0.08371810615062714,-0.04291161894798279,-0.03683800250291824,0.0025281505659222603,-0.011813006363809109,0.11240979935973883,0.022378471679985523,-0.024828381836414337,-0.016022324562072754,0.012271846303085088,0.13362677085581598,0.03681553890925526,0.006135923151542766,-0.019941750242513212,-0.08436894333371026,-0.02914563496982714,-0.03067961575771294,-0.0015339807878858025,-0.012271846303085088,0.10754909746176002,0.052972106336506175,-0.01977130793274827,0.019737219470795278,right_hip_pitch,12,6.3,31,151,11
13.29493397300007,0.0,0.0,-0.19416787928436915,0.16689710972195776,-0.09926560120717749,-0.029584968052783597,0.07549267710020642,-0.9967073719851577,1.0,1.0,0.0,-0.0,-0.0,-0.0,-0.0,0.30687107727372825,-0.0,0.0,-0.07671776931843206,-0.0,0.0,0.0,0.2301533079552962,0.0,0.016627775505185127,0.032078925520181656,0.06509929895401001,0.04383039474487305,0.004049517214298248,0.5145719647407532,0.3913536071777344,-0.14628511667251587,0.006899252533912659,-0.060170162469148636,-0.03975030779838562,0.03783793747425079,0.06521032750606537,0.15622398257255554,0.006600404856726527,0.1301927799358964,0.024652404710650444,-0.028312310576438904,-0.05483815632760525,-0.07922571897506714,-0.044056862592697144,-0.03657127916812897,0.0017248131334781647,-0.010853750631213188,0.11223547160625458,0.021153190173208714,-0.022967327386140823,-0.016794539988040924,0.006600404856726527,0.1301927799358964,0.024652404710650444,-0.028312310576438904,-0.05483815632760525,-0.07922571897506714,-0.044056862592697144,-0.03657127916812897,0.0017248131334781647,-0.010853750631213188,0.11223547160625458,0.021153190173208714,-0.022967327386140823,-0.016794539988040924,0.012271846303085088,0.13362677085581598,0.038349519697141066,0.006135923151542766,-0.019941750242513212,-0.07976700097005329,-0.02914563496982714,-0.03067961575771294,-0.004601942363656963,-0.012271846303085088,0.10754909746176002,0.052972106336506175,-0.01670334635697711,0.019737219470795278,,,,,,
13.315046326000129,0.0,0.0,-0.19416787928436915,0.16689710972195776,-0.09926560120717749,-0.029584968052783597,0.07549267710020642,-0.9967073719851577,1.0,1.0,0.0,-0.0,0.07671776931843206,-0.0,-0.0,0.15343553863686413,-0.0,0.0,-0.07671776931843206,-0.0,0.0,0.0,0.07671776931843206,0.0,0.017820099368691444,0.036502987146377563,0.0687534511089325,0.03879542648792267,-0.002420082688331604,0.5283688902854919,0.3878023624420166,-0.15018539130687714,0.0026932284235954285,-0.059707365930080414,-0.040484629571437836,0.036056116223335266,0.06955782324075699,0.1451631635427475,0.0068984858226031065,0.13129879534244537,0.025565942749381065,-0.0295710526406765,-0.05645555630326271,-0.07577648758888245,-0.04494467377662659,-0.037546347826719284,0.0006733071058988571,-0.010738051496446133,0.11205189116299152,0.02070773486047983,-0.02188045345246792,-0.019559744745492935,0.0068984858226031065,0.13129879534244537,0.025565942749381065,-0.0295710526406765,-0.05645555630326271,-0.07577648758888245,-0.04494467377662659,-0.037546347826719284,0.0006733071058988571,-0.010738051496446133,0.11205189116299152,0.02070773486047983,-0.02188045345246792,-0.019559744745492935,0.012271846303085088,0.13362677085581598,0.038349519697141066,0.006135923151542766,-0.021475731030399015,-0.07516505860639633,-0.02914563496982714,-0.03067961575771294,-0.006135923151542766,-0.012271846303085088,0.10754909746176002,0.052972106336506175,-0.015169365569091306,0.019737219470795278,,,,,,
13.335175032000052,0.0,0.0,-0.21489366415180183,0.11671889372712078,-0.14835298641951802,-0.026516176399093767,0.080568382135708,-0.9963963208428697,1.0,1.0,-0.07671776931843206,-0.0,-0.0,-0.0,-0.07671776931843206,0.2301533079552962,-0.0,0.0,-0.15343553863686413,-0.0,0.0,0.0,0.07671776931843206,0.0,0.011614294722676277,0.026331795379519463,0.07019880414009094,0.046861521899700165,0.014726154506206512,0.529801607131958,0.3860469460487366,-0.14835810661315918,-0.0023740362375974655,-0.06650345027446747,-0.038990844041109085,0.03993707895278931,0.08208192139863968,0.15698744356632233,0.005347034661099315,0.12875599740073085,0.025927281007170677,-0.027554528787732124,-0.05216899700462818,-0.07541830837726593,-0.045383527874946594,-0.037089526653289795,-0.0005935090593993664,-0.012437072582542896,0.11242533754557371,0.021677975542843342,-0.018749428912997246,-0.016603674739599228,0.005347034661099315,0.12875599740073085,0.025927281007170677,-0.027554528787732124,-0.05216899700462818,-0.07541830837726593,-0.045383527874946594,-0.037089526653289795,-0.0005935090593993664,-0.012437072582542896,0.11242533754557371,0.021677975542843342,-0.018749428912997246,-0.016603674739599228,0.010737865515199285,0.13362677085581598,0.038349519697141066,0.006135923151542766,-0.021475731030399015,-0.07056311624273937,-0.02914563496982714,-0.03067961575771294,-0.007669903939428124,-0.012271846303085088,0.10754909746176002,0.052972106336506175,-0.013635384781205503,0.019737219470795278,,,,,,
13.355141351000157,0.0,0.0,-0.06435901616729091,0.06872233929727672,-0.04799655442984406,-0.024496479543226406,0.08369630510602356,-0.9961901680912072,1.0,1.0,-0.15343553863686413,-0.0,-0.0,-0.0,-0.07671776931843206,0.2301533079552962,-0.0,0.0,0.0,-0.0,0.0,0.0,0.07671776931843206,0.0,0.0018584486097097397,0.0342022143304348,0.08597715198993683,0.036382295191287994,0.035161733627319336,0.5354597568511963,0.38401901721954346,-0.15064044296741486,-0.0146449850872159,-0.050668057054281235,-0.037907566875219345,0.03285593539476395,0.07492028921842575,0.13811638951301575,0.0029080731328576803,0.13072360213845968,0.02987186796963215,-0.030174335464835167,-0.047060102224349976,-0.07400377094745636,-0.04589051008224487,-0.037660110741853714,-0.003661246271803975,-0.008478224277496338,0.11269615683704615,0.019907689653337002,-0.020539836958050728,-0.021321438252925873,0.0029080731328576803,0.13072360213845968,0.02987186796963215,-0.030174335464835167,-0.047060102224349976,-0.07400377094745636,-0.04589051008224487,-0.037660110741853714,-0.003661246271803975,-0.008478224277496338,0.11269615683704615,0.019907689653337002,-0.020539836958050728,-0.021321438252925873,0.007669903939428124,0.13362677085581598,0.038349519697141066,0.006135923151542766,-0.023009711818284817,-0.0659611738790824,-0.02914563496982714,-0.03067961575771294,-0.007669903939428124,-0.012271846303085088,0.10754909746176002,0.052972106336506175,-0.012101403993320145,0.019737219470795278,,,,,,
13.37638955600005,0.0,0.0,-0.06435901616729091,0.06872233929727672,-0.04799655442984406,-0.024496479543226406,0.08369630510602356,-0.9961901680912072,1.0,1.0,-0.15343553863686413,0.07671776931843206,-0.0,-0.0,-0.0,0.2301533079552962,-0.0,0.0,0.0,-0.0,0.0,0.0,0.07671776931843206,0.07671776931843206,-0.014313346706330776,0.03707251697778702,0.08459299802780151,0.030120767652988434,0.03896593675017357,0.5502843260765076,0.38502970337867737,-0.15156793594360352,-0.015291761606931686,-0.0472247451543808,-0.03637835383415222,0.030252113938331604,0.07181018590927124,0.1321885883808136,-0.0011348756961524487,0.13144117780029774,0.02952582947909832,-0.03173971734941006,-0.04610905144363642,-0.07029762864112854,-0.045637838542461395,-0.03789198398590088,-0.0038229404017329216,-0.007617396302521229,0.11307846009731293,0.019256734289228916,-0.021317362785339355,-0.02280338853597641,-0.0011348756961524487,0.13144117780029774,0.02952582947909832,-0.03173971734941006,-0.04610905144363642,-0.07029762864112854,-0.045637838542461395,-0.03789198398590088,-0.0038229404017329216,-0.007617396302521229,0.11307846009731293,0.019256734289228916,-0.021317362785339355,-0.02280338853597641,0.004601942363656963,0.13669473243158714,0.038349519697141066,0.006135923151542766,-0.023009711818284817,-0.06135923151542544,-0.02914563496982714,-0.03067961575771294,-0.007669903939428124,-0.01380582709097089,0.10754909746176002,0.052972106336506175,-0.012101403993320145,0.02127120025868108,left_knee,23,6.2,30,1197,14
13.395442797999976,0.0,0.0,-0.037088246604879506,0.08399397025222712,-0.14726215563702155,-0.021432220393963693,0.08572888157585477,-0.9960879573575506,1.0,1.0,-0.07671776931843206,0.07671776931843206,-0.0,-0.0,-0.0,0.15343553863686413,-0.0,0.0,0.0,-0.07671776931843206,0.0,0.0,0.0,0.0,-0.019178317859768867,0.035275619477033615,0.08785763382911682,0.020782068371772766,0.03844507783651352,0.561058759689331,0.38116151094436646,-0.15838775038719177,-0.01226181909441948,-0.03895913064479828,-0.035299595445394516,0.023775644600391388,0.07154738157987595,0.1207006573677063,-0.0023511184845119715,0.1309919534251094,0.030341988429427147,-0.034074392169713974,-0.04623926617205143,-0.06760402023792267,-0.046604886651039124,-0.03959693759679794,-0.00306545477360487,-0.005550992675125599,0.11334814969450235,0.017637616954743862,-0.02138306386768818,-0.025675371289253235,-0.0023511184845119715,0.1309919534251094,0.030341988429427147,-0.034074392169713974,-0.04623926617205143,-0.06760402023792267,-0.046604886651039124,-0.03959693759679794,-0.00306545477360487,-0.005550992675125599,0.11334814969450235,0.017637616954743862,-0.02138306386768818,-0.025675371289253235,0.003067961575771161,0.13669473243158714,0.038349519697141066,0.006135923151542766,-0.023009711818284817,-0.05829126993965428,-0.02914563496982714,-0.03067961575771294,-0.007669903939428124,-0.01380582709097089,0.10754909746176002,0.052972106336506175,-0.012101403993320145,0.02127120025868108,,,,,,
13.415537856000128,0.0,0.0,-0.037088246604879506,0.08399397025222712,-0.14726215563702155,-0.021432220393963693,0.08572888157585477,-0.9960879573575506,1.0,1.0,-0.07671776931843206,0.07671776931843206,-0.0,-0.07671776931843206,-0.0,0.15343553863686413,-0.0,0.0,0.0,-0.0,0.0,0.0,0.0,0.0,-0.02655019983649254,0.03777848929166794,0.09045112133026123,0.018055982887744904,0.04762142524123192,0.5651760697364807,0.38247793912887573,-0.15334472060203552,-0.013086519204080105,-0.036158330738544464,-0.03626424819231033,0.025904692709445953,0.07361525297164917,0.12320005893707275,-0.004194088978692889,0.13161767087876797,0.03099036030471325,-0.03475591354072094,-0.04394517932087183,-0.06657469272613525,-0.046275779604911804,-0.03833618015050888,-0.003271629801020026,-0.004850792698562145,0.1131069865077734,0.018169878982007504,-0.020866096019744873,-0.02505052089691162,-0.004194088978692889,0.13161767087876797,0.03099036030471325,-0.03475591354072094,-0.04394517932087183,-0.06657469272613525,-0.046275779604911804,-0.03833618015050888,-0.003271629801020026,-0.004850792698562145,0.1131069865077734,0.018169878982007504,-0.020866096019744873,-0.02505052089691162,0.0015339807878858025,0.13822871321947294,0.038349519697141066,0.003067961575771161,-0.023009711818284817,-0.05522330836388312,-0.02914563496982714,-0.03067961575771294,-0.007669903939428124,-0.01380582709097089,0.10754909746176002,0.052972106336506175,-0.012101403993320145,0.02127120025868108,,,,,,
13.435726596999984,0.0,0.0,0.019634954084936207,0.039269908169872414,-0.11126473981463851,-0.020412074324789368,0.08573071216411533,-0.996109227049721,1.0,1.0,-0.15343553863686413,-0.0,-0.0,-0.15343553863686413,-0.0,0.15343553863686413,-0.0,0.0,0.0,-0.0,0.0,0.0,0.0,0.0,-0.036917105317115784,0.03830404579639435,0.09621059894561768,0.012414507567882538,0.06624369323253632,0.5659149885177612,0.3812560737133026,-0.14963433146476746,-0.0170111283659935,-0.033374954015016556,-0.03237245976924896,0.03158121556043625,0.07040649652481079,0.11822526901960373,-0.0067858153488487005,0.13174906000494957,0.03243022970855236,-0.03616628237068653,-0.03928961232304573,-0.06638996303081512,-0.046581245958805084,-0.037408582866191864,-0.004252782091498375,-0.004154948517680168,0.11407993361353874,0.019589009694755077,-0.021668285131454468,-0.026294218376278877,-0.0067858153488487005,0.13174906000494957,0.03243022970855236,-0.03616628237068653,-0.03928961232304573,-0.06638996303081512,-0.046581245958805084,-0.037408582866191864,-0.004252782091498375,-0.004154948517680168,0.11407993361353874,0.019589009694755077,-0.021668285131454468,-0.026294218376278877,-0.0015339807878858025,0.13822871321947294,0.038349519697141066,-0.0,-0.023009711818284817,-0.052155346788111956,-0.02914563496982714,-0.03067961575771294,-0.007669903939428124,-0.01380582709097089,0.10754909746176002,0.052972106336506175,-0.012101403993320145,0.02127120025868108,,,,,,
13.45554901100013,0.0,0.0,0.04581489286485115,0.0545415391248228,-0.06435901616729091,-0.019393551417276462,0.0847191982965235,-0.9962161149085171,1.0,1.0,-0.07671776931843206,-0.0,-0.0,-0.2301533079552962,-0.0,0.07671776931843206,-0.0,0.0,0.0,-0.0,0.0,0.0,0.0,0.0,-0.04280943423509598,0.04157542437314987,0.0972713977098465,0.00477328896522522,0.07015581429004669,0.5738362669944763,0.3815266489982605,-0.15329653024673462,-0.02073451317846775,-0.030196355655789375,-0.03232114762067795,0.03176025301218033,0.061637088656425476,0.11518260091543198,-0.008258897578343749,0.13256690464913845,0.032695429399609566,-0.03807658702135086,-0.03831158205866814,-0.06440964341163635,-0.04651360213756561,-0.038324132561683655,-0.005183628294616938,-0.003360298927873373,0.1140927616506815,0.019633769057691097,-0.023860637098550797,-0.027054885402321815,-0.008258897578343749,0.13256690464913845,0.032695429399609566,-0.03807658702135086,-0.03831158205866814,-0.06440964341163635,-0.04651360213756561,-0.038324132561683655,-0.005183628294616938,-0.003360298927873373,0.1140927616506815,0.019633769057691097,-0.023860637098550797,-0.027054885402321815,-0.003067961575771161,0.13822871321947294,0.038349519697141066,-0.003067961575771161,-0.023009711818284817,-0.05062136600022615,-0.02914563496982714,-0.03067961575771294,-0.007669903939428124,-0.01380582709097089,0.10754909746176002,0.052972106336506175,-0.012101403993320145,0.02127120025868108,,,,,,
13.476543924999987,0.0,0.0,0.11017390903214205,0.06981317007977318,-0.09599310885968812,-0.017338104081416873,0.08261096650557452,-0.9964310404437814,1.0,1.0,-0.15343553863686413,-0.0,-0.0,-0.15343553863686413,-0.0,0.07671776931843206,-0.0,0.0,0.0,-0.0,0.0,0.0,0.0,0.0,-0.05442211031913757,0.04132777824997902,0.101949542760849,-0.004134193062782288,0.09042219817638397,0.5740395188331604,0.38231462240219116,-0.1492106169462204,-0.024015720933675766,-0.026115842163562775,-0.028173483908176422,0.038970619440078735,0.052211083471775055,0.10856884717941284,-0.011162066599354148,0.13250499311834574,0.03386496566236019,-0.04030345752835274,-0.033244986087083817,-0.06435883045196533,-0.04631660878658295,-0.0373026542365551,-0.0060039302334189415,-0.002340170554816723,0.11512967757880688,0.0214363606646657,-0.026217138394713402,-0.0287083238363266,-0.011162066599354148,0.13250499311834574,0.03386496566236019,-0.04030345752835274,-0.033244986087083817,-0.06435883045196533,-0.04631660878658295,-0.0373026542365551,-0.0060039302334189415,-0.002340170554816723,0.11512967757880688,0.0214363606646657,-0.026217138394713402,-0.0287083238363266,-0.006135923151542766,0.13822871321947294,0.038349519697141066,-0.007669903939428124,-0.023009711818284817,-0.04908738521234035,-0.02914563496982714,-0.03067961575771294,-0.007669903939428124,-0.01380582709097089,0.10754909746176002,0.052972106336506175,-0.012101403993320145,0.02127120025868108,right_knee,13,6.2,30,68,3
13.495701257000064,0.0,0.0,0.14835298641951802,0.06872233929727672,-0.08072147790473774,-0.01632121229980266,0.08058598573027564,-0.9966140260566999,1.0,1.0,-0.07671776931843206,-0.0,-0.0,-0.15343553863686413,-0.0,-0.0,-0.0,0.0,0.0,-0.0,0.0,0.0,0.0,0.0,-0.05855284631252289,0.04208994656801224,0.1066143810749054,-0.01266428828239441,0.0997605249285698,0.5754276514053345,0.3812716603279114,-0.15002363920211792,-0.026542343199253082,-0.020620806142687798,-0.025857824832201004,0.03769220411777496,0.04596172273159027,0.10446670651435852,-0.012194750597700477,0.13269553519785404,0.03503117524087429,-0.04243598133325577,-0.03091040439903736,-0.06401179730892181,-0.04657734930515289,-0.03750590980052948,-0.006635585799813271,-0.0009664115495979786,0.11570859234780073,0.021116756834089756,-0.027779478579759598,-0.02973385900259018,-0.012194750597700477,0.13269553519785404,0.03503117524087429,-0.04243598133325577,-0.03091040439903736,-0.06401179730892181,-0.04657734930515289,-0.03750590980052948,-0.006635585799813271,-0.0009664115495979786,0.11570859234780073,0.021116756834089756,-0.027779478579759598,-0.02973385900259018,-0.007669903939428124,0.13822871321947294,0.038349519697141066,-0.009203884727313927,-0.023009711818284817,-0.04908738521234035,-0.02914563496982714,-0.03067961575771294,-0.007669903939428124,-0.01380582709097089,0.10754909746176002,0.052972106336506175,-0.012101403993320145,0.02127120025868108,,,,,,
13.515791685000067,0.0,0.0,0.14835298641951802,0.06872233929727672,-0.08072147790473774,-0.01632121229980266,0.08058598573027564,-0.9966140260566999,1.0,1.0,-0.07671776931843206,-0.0,-0.0,-0.0,-0.0,-0.0,-0.0,0.0,0.0,-0.0,0.0,0.0,0.0,0.0,-0.06501412391662598,0.040678538382053375,0.10950151085853577,-0.015432208776473999,0.10896269977092743,0.5714666247367859,0.3819068968296051,-0.14626218378543854,-0.028761425986886024,-0.022575465962290764,-0.025543060153722763,0.04296793043613434,0.04630598425865173,0.10734152793884277,-0.013810069998726249,0.13234268315136433,0.03575295768678188,-0.043127961456775665,-0.028609860688447952,-0.06500205397605896,-0.04641854017972946,-0.036565545946359634,-0.007190356496721506,-0.0014550765044987202,0.11578728351742029,0.0224356884136796,-0.027693413197994232,-0.029015153646469116,-0.013810069998726249,0.13234268315136433,0.03575295768678188,-0.043127961456775665,-0.028609860688447952,-0.06500205397605896,-0.04641854017972946,-0.036565545946359634,-0.007190356496721506,-0.0014550765044987202,0.11578728351742029,0.0224356884136796,-0.027693413197994232,-0.029015153646469116,-0.009203884727313927,0.13822871321947294,0.038349519697141066,-0.010737865515199285,-0.023009711818284817,-0.04908738521234035,-0.02914563496982714,-0.03067961575771294,-0.007669903939428124,-0.01380582709097089,0.10754909746176002,0.052972106336506175,-0.012101403993320145,0.02127120025868108,,,,,,
13.535851743999956,0.0,0.0,0.10035643198967395,0.0272707695624114,-0.0545415391248228,-0.01530386782820177,0.07855985485143575,-0.9967919245435419,1.0,1.0,-0.15343553863686413,-0.0,-0.0,-0.15343553863686413,-0.0,-0.0,-0.0,0.0,0.0,-0.0,0.0,0.0,0.0,-0.07671776931843206,-0.07062383741140366,0.04008835181593895,0.1087416410446167,-0.010980471968650818,0.10659383237361908,0.5662954449653625,0.3812320828437805,-0.14496459066867828,-0.02910495549440384,-0.026967570185661316,-0.025916095823049545,0.048137977719306946,0.05333498865365982,0.11294475942850113,-0.015212498372420669,0.13219513650983572,0.035562990233302116,-0.04201502725481987,-0.02920207753777504,-0.0662948489189148,-0.04658724367618561,-0.03624114766716957,-0.00727623887360096,-0.002553102560341358,0.1156940246000886,0.02372820023447275,-0.02593616209924221,-0.027614345774054527,-0.015212498372420669,0.13219513650983572,0.035562990233302116,-0.04201502725481987,-0.02920207753777504,-0.0662948489189148,-0.04658724367618561,-0.03624114766716957,-0.00727623887360096,-0.002553102560341358,0.1156940246000886,0.02372820023447275,-0.02593616209924221,-0.027614345774054527,-0.012271846303085088,0.13822871321947294,0.038349519697141066,-0.012271846303085088,-0.023009711818284817,-0.04908738521234035,-0.02914563496982714,-0.03067961575771294,-0.007669903939428124,-0.01380582709097089,0.10754909746176002,0.052972106336506175,-0.012101403993320145,0.019737219470795278,,,,,,
13.556260222999981,0.0,0.0,0.1734420944169365,-0.020725784867432664,0.03599741582238305,-0.015308649126553813,0.07450209241589523,-0.9971033464428717,1.0,1.0,-0.07671776931843206,-0.0,-0.0,-0.07671776931843206,-0.0,-0.0,-0.0,0.0,0.0,-0.0,0.0,0.0,0.0,0.0,-0.07601751387119293,0.04099666327238083,0.11308032274246216,-0.011441856622695923,0.13029617071151733,0.5603871941566467,0.38339313864707947,-0.1401410847902298,-0.034605760127305984,-0.02306632697582245,-0.021726291626691818,0.0562538281083107,0.046803608536720276,0.11283492296934128,-0.016560917487367988,0.1324222143739462,0.03664766065776348,-0.042130373418331146,-0.023276492953300476,-0.06777191162109375,-0.04604697972536087,-0.03503527119755745,-0.008651440031826496,-0.0015777917578816414,0.11674147564917803,0.02575716283172369,-0.027569007128477097,-0.02764180488884449,-0.016560917487367988,0.1324222143739462,0.03664766065776348,-0.042130373418331146,-0.023276492953300476,-0.06777191162109375,-0.04604697972536087,-0.03503527119755745,-0.008651440031826496,-0.0015777917578816414,0.11674147564917803,0.02575716283172369,-0.027569007128477097,-0.02764180488884449,-0.01380582709097089,0.13822871321947294,0.038349519697141066,-0.01380582709097089,-0.023009711818284817,-0.04908738521234035,-0.02914563496982714,-0.03067961575771294,-0.007669903939428124,-0.01380582709097089,0.10754909746176002,0.052972106336506175,-0.012101403993320145,0.019737219470795278,,,,,,
13.57729883900015,0.0,0.0,0.18980455615438332,-0.028361600344907856,0.025089107997418487,-0.016317180305265265,0.07036784006645645,-0.9973876461593392,1.0,1.0,0.0,-0.0,-0.0,-0.07671776931843206,-0.0,-0.0,-0.0,0.0,0.0,-0.0,0.0,0.0,0.0,-0.07671776931843206,-0.07659164071083069,0.04071398824453354,0.11603245139122009,-0.015511155128479004,0.1353244036436081,0.5553846955299377,0.38629284501075745,-0.13742971420288086,-0.03596373647451401,-0.02385837957262993,-0.019921310245990753,0.05745897442102432,0.04250193387269974,0.10898877680301666,-0.016704449197277427,0.13235154561698437,0.037385692819952965,-0.043147698044776917,-0.022019434720277786,-0.069022536277771,-0.045322053134441376,-0.034357428550720215,-0.008990934118628502,-0.0017758049070835114,0.1171927209943533,0.026058449409902096,-0.02864442579448223,-0.028603341430425644,-0.016704449197277427,0.13235154561698437,0.037385692819952965,-0.043147698044776917,-0.022019434720277786,-0.069022536277771,-0.045322053134441376,-0.034357428550720215,-0.008990934118628502,-0.0017758049070835114,0.1171927209943533,0.026058449409902096,-0.02864442579448223,-0.028603341430425644,-0.01380582709097089,0.13822871321947294,0.038349519697141066,-0.015339807878856249,-0.023009711818284817,-0.04908738521234035,-0.02914563496982714,-0.03067961575771294,-0.007669903939428124,-0.01380582709097089,0.10754909746176002,0.052972106336506175,-0.012101403993320145,0.018203238682909476,left_ankle,24,6.3,29,1047,0
13.596329341,0.0,0.0,0.1559888018969932,-0.0545415391248228,0.04145156973486533,-0.01632061792334883,0.06732254893381392,-0.9975977705646972,1.0,1.0,0.0,-0.0,-0.0,-0.0,-0.0,-0.0,-0.0,0.0,0.0,-0.0,0.0,0.0,0.0,-0.07671776931843206,-0.07604051381349564,0.040156662464141846,0.11669515073299408,-0.010948032140731812,0.13803687691688538,0.5464158654212952,0.3879607319831848,-0.1323033571243286,-0.035231705754995346,-0.02680685743689537,-0.019352637231349945,0.06495161354541779,0.046544574201107025,0.11415092647075653,-0.016566667472943664,0.13221221417188644,0.03755136765539646,-0.04200691729784012,-0.021341316401958466,-0.07126474380493164,-0.044905081391334534,-0.03307583928108215,-0.008807926438748837,-0.002512924373149872,0.1173348892480135,0.02793160919100046,-0.02763376571238041,-0.027312804013490677,-0.016566667472943664,0.13221221417188644,0.03755136765539646,-0.04200691729784012,-0.021341316401958466,-0.07126474380493164,-0.044905081391334534,-0.03307583928108215,-0.008807926438748837,-0.002512924373149872,0.1173348892480135,0.02793160919100046,-0.02763376571238041,-0.027312804013490677,-0.01380582709097089,0.13822871321947294,0.038349519697141066,-0.01687378866674205,-0.023009711818284817,-0.04908738521234035,-0.02914563496982714,-0.03067961575771294,-0.007669903939428124,-0.01380582709097089,0.10754909746176002,0.052972106336506175,-0.012101403993320145,0.015135277107138315,,,,,,
13.61635225200007,0.0,0.0,0.1930770485018727,-0.07635815477475191,0.0916297857297023,-0.018363742996754813,0.06427310048864185,-0.9977633694903447,1.0,1.0,0.0,-0.0,-0.0,-0.07671776931843206,-0.0,-0.0,-0.0,0.0,0.0,0.07671776931843206,0.0,-0.07671776931843206,0.0,-0.15343553863686413,-0.0745822861790657,0.0395391546189785,0.12045998871326447,-0.007917627692222595,0.14432445168495178,0.5395335555076599,0.39065706729888916,-0.1265472173690796,-0.0369453988969326,-0.022196857258677483,-0.01814947836101055,0.06563214212656021,0.04748505353927612,0.11601585894823074,-0.01620211056433618,0.1320578372105956,0.03849257715046406,-0.041249316185712814,-0.019769422709941864,-0.07298532128334045,-0.04423099756240845,-0.0316368043422699,-0.00923634972423315,-0.0013604243285953999,0.11763567896559834,0.028101741336286068,-0.027398645877838135,-0.026846570894122124,-0.01620211056433618,0.1320578372105956,0.03849257715046406,-0.041249316185712814,-0.019769422709941864,-0.07298532128334045,-0.04423099756240845,-0.0316368043422699,-0.00923634972423315,-0.0013604243285953999,0.11763567896559834,0.028101741336286068,-0.027398645877838135,-0.026846570894122124,-0.01380582709097089,0.13822871321947294,0.038349519697141066,-0.01687378866674205,-0.023009711818284817,-0.04908738521234035,-0.02914563496982714,-0.03067961575771294,-0.007669903939428124,-0.012271846303085088,0.10754909746176002,0.05143812554862037,-0.012101403993320145,0.012067315531367154,,,,,,
13.638171874000136,0.0,0.0,0.1930770485018727,-0.07635815477475191,0.0916297857297023,-0.018363742996754813,0.06427310048864185,-0.9977633694903447,1.0,1.0,0.0,-0.0,-0.0,-0.0,0.07671776931843206,-0.0,-0.0,0.0,0.0,-0.0,0.0,0.0,0.0,-0.15343553863686413,-0.07703162729740143,0.038247574120759964,0.11719214916229248,-0.008961379528045654,0.15063346922397614,0.5395469665527344,0.39231687784194946,-0.12052544206380844,-0.0362006276845932,-0.021555807441473007,-0.01786649413406849,0.06847931444644928,0.047049835324287415,0.1165032684803009,-0.01681444584392011,0.13173494208604097,0.03767561726272106,-0.04151025414466858,-0.018192168325185776,-0.07298196852207184,-0.04381604492664337,-0.03013136051595211,-0.0090501569211483,-0.001200161874294281,0.11770642502233386,0.028813534416258335,-0.027507450431585312,-0.026724718511104584,-0.01681444584392011,0.13173494208604097,0.03767561726272106,-0.04151025414466858,-0.018192168325185776,-0.07298196852207184,-0.04381604492664337,-0.03013136051595211,-0.0090501569211483,-0.001200161874294281,0.11770642502233386,0.028813534416258335,-0.027507450431585312,-0.026724718511104584,-0.01380582709097089,0.13822871321947294,0.038349519697141066,-0.01687378866674205,-0.019941750242513212,-0.04908738521234035,-0.02914563496982714,-0.03067961575771294,-0.007669903939428124,-0.012271846303085088,0.10754909746176002,0.05143812554862037,-0.012101403993320145,0.008999353955595549,,,,,,
13.656562220000069,0.0,0.0,0.1712604328519436,-0.14508049407202864,-0.001090830782496456,-0.021429809859240558,0.059187093896950115,-0.9980168591589175,1.0,1.0,0.0,-0.0,-0.0,-0.0,0.15343553863686413,-0.0,-0.0,0.0,0.0,-0.0,0.0,0.0,0.0,-0.2301533079552962,-0.07476485520601273,0.03738649562001228,0.11823295056819916,0.0013852715492248535,0.15719135105609894,0.5299537777900696,0.39367276430130005,-0.12380796670913696,-0.03267347812652588,-0.025144554674625397,-0.016200857236981392,0.07265376299619675,0.054590411484241486,0.12187971919775009,-0.016247752821072936,0.13151967246085405,0.03793581761419773,-0.03892359137535095,-0.016552697867155075,-0.07538026571273804,-0.043477073311805725,-0.03095199167728424,-0.00816836953163147,-0.0020973486825823784,0.11812283424660563,0.029857146553695202,-0.025622306391596794,-0.025380605831742287,-0.016247752821072936,0.13151967246085405,0.03793581761419773,-0.03892359137535095,-0.016552697867155075,-0.07538026571273804,-0.043477073311805725,-0.03095199167728424,-0.00816836953163147,-0.0020973486825823784,0.11812283424660563,0.029857146553695202,-0.025622306391596794,-0.025380605831742287,-0.01380582709097089,0.13822871321947294,0.038349519697141066,-0.01687378866674205,-0.015339807878856249,-0.04908738521234035,-0.02914563496982714,-0.03067961575771294,-0.007669903939428124,-0.012271846303085088,0.10754909746176002,0.05143812554862037,-0.012101403993320145,0.005931392379824388,,,,,,
13.677566189000117,0.0,0.0,0.20507618710933373,-0.17998707911191522,0.044724062082354694,-0.024493813090316494,0.05613165499864197,-0.998122883430397,1.0,1.0,0.0,-0.0,-0.0,-0.0,0.2301533079552962,-0.0,-0.0,0.0,0.0,-0.0,0.0,0.0,0.0,-0.07671776931843206,-0.07505696266889572,0.03714611753821373,0.11873981356620789,0.004756331443786621,0.16711269319057465,0.5245298743247986,0.3996981382369995,-0.11583535373210907,-0.03319702297449112,-0.025052562355995178,-0.015757953748106956,0.07667740434408188,0.05725348740816116,0.12308179587125778,-0.016320779686793685,0.13145957794040442,0.03806253336369991,-0.03808082640171051,-0.014072362333536148,-0.07673624157905579,-0.04197072982788086,-0.028958838433027267,-0.00829925574362278,-0.0020743506029248238,0.11823356011882424,0.030863056890666485,-0.024956537410616875,-0.025080086663365364,-0.016320779686793685,0.13145957794040442,0.03806253336369991,-0.03808082640171051,-0.014072362333536148,-0.07673624157905579,-0.04197072982788086,-0.028958838433027267,-0.00829925574362278,-0.0020743506029248238,0.11823356011882424,0.030863056890666485,-0.024956537410616875,-0.025080086663365364,-0.01380582709097089,0.13822871321947294,0.038349519697141066,-0.01687378866674205,-0.012271846303085088,-0.04908738521234035,-0.02914563496982714,-0.03067961575771294,-0.007669903939428124,-0.012271846303085088,0.10754909746176002,0.05143812554862037,-0.012101403993320145,0.002863430804053227,right_ankle,14,6.3,29,151,13
13.696896130000141,0.0,0.0,0.17998707911191522,-0.18435040224190105,0.04690572364734761,-0.027559429555380856,0.05205670027127495,-0.9982637816726843,1.0,1.0,0.0,-0.0,-0.0,-0.0,0.15343553863686413,-0.0,-0.0,0.0,0.0,-0.0,0.0,0.0,0.0,-0.15343553863686413,-0.07692611962556839,0.03722554072737694,0.11348417401313782,0.008621178567409515,0.16467882692813873,0.5213222503662109,0.40496939420700073,-0.11975432187318802,-0.032442353665828705,-0.02900547906756401,-0.01660442166030407,0.07624106109142303,0.05440934747457504,0.11607675999403,-0.016788068925961852,0.13147943373769522,0.036748623475432396,-0.03711461462080479,-0.014680828899145126,-0.0775381475687027,-0.040652915835380554,-0.029938580468297005,-0.008110588416457176,-0.003062579780817032,0.11802194314077497,0.030753971077501774,-0.025667572394013405,-0.02683134563267231,-0.016788068925961852,0.13147943373769522,0.036748623475432396,-0.03711461462080479,-0.014680828899145126,-0.0775381475687027,-0.040652915835380554,-0.029938580468297005,-0.008110588416457176,-0.003062579780817032,0.11802194314077497,0.030753971077501774,-0.025667572394013405,-0.02683134563267231,-0.01380582709097089,0.13822871321947294,0.038349519697141066,-0.01687378866674205,-0.009203884727313927,-0.04908738521234035,-0.02914563496982714,-0.03067961575771294,-0.007669903939428124,-0.012271846303085088,0.10754909746176002,0.05143812554862037,-0.012101403993320145,0.0013294500161674244,,,,,,
13.716833098000052,0.0,0.0,0.17998707911191522,-0.18435040224190105,0.04690572364734761,-0.027559429555380856,0.05205670027127495,-0.9982637816726843,1.0,1.0,0.0,-0.0,-0.0,-0.0,0.07671776931843206,-0.0,-0.0,0.0,0.0,-0.0,0.0,0.0,0.0,-0.07671776931843206,-0.07619699090719223,0.035213638097047806,0.1116170883178711,0.012917838990688324,0.16961514949798584,0.5173101425170898,0.4051164388656616,-0.11831741034984589,-0.030811499804258347,-0.028873523697257042,-0.015958862379193306,0.08089374750852585,0.05733875930309296,0.11823399364948273,-0.016605786746367812,0.13097645808011293,0.036281852051615715,-0.036040449514985085,-0.01344674825668335,-0.07854117453098297,-0.04061615467071533,-0.02957935258746147,-0.007702874951064587,-0.0030295909382402897,0.11818333296105266,0.03191714268177748,-0.024935219436883926,-0.026292037218809128,-0.016605786746367812,0.13097645808011293,0.036281852051615715,-0.036040449514985085,-0.01344674825668335,-0.07854117453098297,-0.04061615467071533,-0.02957935258746147,-0.007702874951064587,-0.0030295909382402897,0.11818333296105266,0.03191714268177748,-0.024935219436883926,-0.026292037218809128,-0.01380582709097089,0.13822871321947294,0.038349519697141066,-0.01687378866674205,-0.007669903939428124,-0.04908738521234035,-0.02914563496982714,-0.03067961575771294,-0.007669903939428124,-0.012271846303085088,0.10754909746176002,0.05143812554862037,-0.012101403993320145,-0.0017385115596037365,,,,,,
13.736900471000126,0.0,0.0,0.16035212502697901,-0.16253378659197193,-0.001090830782496456,-0.030623598523942783,0.04899775763830845,-0.9983293118805348,1.0,1.0,0.0,-0.0,-0.0,-0.0,0.07671776931843206,-0.0,-0.0,0.0,0.0,-0.0,0.0,0.0,0.0,-0.07671776931843206,-0.07632818818092346,0.03262907639145851,0.10648117959499359,0.015432789921760559,0.169709712266922,0.5160868763923645,0.40449953079223633,-0.12291502952575684,-0.027328116819262505,-0.032384760677814484,-0.014230206608772278,0.08128750324249268,0.05523335188627243,0.11452615261077881,-0.01663858606480062,0.1303303176537156,0.03499787487089634,-0.035411711782217026,-0.01342310756444931,-0.0788469910621643,-0.040770381689071655,-0.03072875738143921,-0.006832029204815626,-0.00390740018337965,0.11861549690365791,0.032015581615269184,-0.025461571291089058,-0.027218997478485107,-0.01663858606480062,0.1303303176537156,0.03499787487089634,-0.035411711782217026,-0.01342310756444931,-0.0788469910621643,-0.040770381689071655,-0.03072875738143921,-0.006832029204815626,-0.00390740018337965,0.11861549690365791,0.032015581615269184,-0.025461571291089058,-0.027218997478485107,-0.01380582709097089,0.13669473243158714,0.038349519697141066,-0.01687378866674205,-0.006135923151542766,-0.04908738521234035,-0.02914563496982714,-0.03067961575771294,-0.007669903939428124,-0.012271846303085088,0.10754909746176002,0.05143812554862037,-0.012101403993320145,-0.003272492347489539,,,,,,
13.756868291000046,0.0,0.0,0.17235126363444003,-0.14726215563702155,0.0916297857297023,-0.036713655686846834,0.04283259830132131,-0.9984074699284182,1.0,1.0,0.0,-0.07671776931843206,-0.0,-0.0,0.15343553863686413,-0.07671776931843206,-0.0,0.0,0.07671776931843206,0.07671776931843206,0.0,0.0,0.0,-0.2301533079552962,-0.07625441998243332,0.026764564216136932,0.10197022557258606,0.021164722740650177,0.17574471235275269,0.5087047219276428,0.40388351678848267,-0.11844399571418762,-0.02254936471581459,-0.03243592381477356,-0.012178508564829826,0.08636011183261871,0.05641651898622513,0.1118214875459671,-0.016620144015178084,0.12886418960988522,0.033870136365294456,-0.03397872857749462,-0.011914357542991638,-0.08069252967834473,-0.04092438519001007,-0.029610998928546906,-0.005637341178953648,-0.003920190967619419,0.11912842141464353,0.033283733762800694,-0.025165779516100883,-0.027895163744688034,-0.016620144015178084,0.12886418960988522,0.033870136365294456,-0.03397872857749462,-0.011914357542991638,-0.08069252967834473,-0.04092438519001007,-0.029610998928546906,-0.005637341178953648,-0.003920190967619419,0.11912842141464353,0.033283733762800694,-0.025165779516100883,-0.027895163744688034,-0.01380582709097089,0.13362677085581598,0.038349519697141066,-0.01687378866674205,-0.003067961575771161,-0.05062136600022615,-0.02914563496982714,-0.03067961575771294,-0.006135923151542766,-0.010737865515199285,0.10754909746176002,0.05143812554862037,-0.013635384781205503,-0.007874434711146502,,,,,,
13.777908518000004,0.0,0.0,0.17016960206944712,-0.1559888018969932,0.12435470920459599,-0.03977509200872334,0.03875521785465351,-0.9984567968343628,1.0,1.0,0.0,-0.15343553863686413,-0.0,-0.0,0.15343553863686413,-0.0,-0.0,0.0,0.0,0.07671776931843206,0.0,0.0,-0.07671776931843206,-0.15343553863686413,-0.07434407621622086,0.0295910332351923,0.10148127377033234,0.032046012580394745,0.1790953278541565,0.5047527551651001,0.4071253538131714,-0.10818440467119217,-0.020391272380948067,-0.030466891825199127,-0.013083372265100479,0.09107145667076111,0.06187420338392258,0.1233287900686264,-0.01614255807362497,0.12957080686464906,0.033747898414731026,-0.03125840611755848,-0.011076703667640686,-0.08168052136898041,-0.04011392593383789,-0.027046101167798042,-0.005097818095237017,-0.003427932970225811,0.11890220548957586,0.03446156997233629,-0.02380135841667652,-0.02501833811402321,-0.01614255807362497,0.12957080686464906,0.033747898414731026,-0.03125840611755848,-0.011076703667640686,-0.08168052136898041,-0.04011392593383789,-0.027046101167798042,-0.005097818095237017,-0.003427932970225811,0.11890220548957586,0.03446156997233629,-0.02380135841667652,-0.02501833811402321,-0.01380582709097089,0.13362677085581598,0.038349519697141066,-0.01687378866674205,-0.0015339807878858025,-0.05062136600022615,-0.02914563496982714,-0.03067961575771294,-0.006135923151542766,-0.009203884727313927,0.10754909746176002,0.05143812554862037,-0.013635384781205503,-0.00940841549903186,left_hip_pitch,22,6.5,30,1047,1
13.796983889000103,0.0,0.0,0.2083486794568231,-0.18216874067690814,0.09381144729469522,-0.042834179830052554,0.03569514985837713,-0.9984443346100347,1.0,1.0,0.0,-0.0,-0.0,-0.0,0.07671776931843206,-0.0,-0.0,0.0,0.07671776931843206,0.15343553863686413,0.0,0.0,0.0,-0.15343553863686413,-0.07262259721755981,0.02511497773230076,0.1039656400680542,0.033652953803539276,0.1799708604812622,0.4982512593269348,0.40736955404281616,-0.1059596985578537,-0.016102176159620285,-0.025167454034090042,-0.012098748236894608,0.09163221716880798,0.06574851274490356,0.122017040848732,-0.015712188323959708,0.12845179298892617,0.03436898998916149,-0.030856670811772346,-0.010857820510864258,-0.08330589532852173,-0.0400528758764267,-0.026489924639463425,-0.004025544039905071,-0.0021030735224485397,0.11914836149662733,0.03460176009684801,-0.022832781076431274,-0.02534627541899681,-0.015712188323959708,0.12845179298892617,0.03436898998916149,-0.030856670811772346,-0.010857820510864258,-0.08330589532852173,-0.0400528758764267,-0.026489924639463425,-0.004025544039905071,-0.0021030735224485397,0.11914836149662733,0.03460176009684801,-0.022832781076431274,-0.02534627541899681,-0.01380582709097089,0.13209279006793018,0.038349519697141066,-0.01687378866674205,-0.0,-0.05062136600022615,-0.02914563496982714,-0.03067961575771294,-0.004601942363656963,-0.006135923151542766,0.10754909746176002,0.05143812554862037,-0.013635384781205503,-0.014010357862688824,,,,,,
13.817117076000159,0.0,0.0,0.2083486794568231,-0.18216874067690814,0.09381144729469522,-0.042834179830052554,0.03569514985837713,-0.9984443346100347,1.0,1.0,0.0,-0.07671776931843206,-0.0,-0.0,-0.0,-0.0,-0.0,0.0,0.07671776931843206,0.15343553863686413,0.07671776931843206,0.0,0.0,-0.15343553863686413,-0.07317349314689636,0.022062864154577255,0.10610198974609375,0.029445543885231018,0.1857869029045105,0.49531036615371704,0.40328508615493774,-0.09814818203449249,-0.01047586090862751,-0.012019617483019829,-0.008089013397693634,0.09479090571403503,0.07032933831214905,0.11886480450630188,-0.015849912306293845,0.1276887645944953,0.03490307740867138,-0.03190852329134941,-0.009403809905052185,-0.08404111862182617,-0.0410739928483963,-0.024537045508623123,-0.0026189652271568775,0.0011838856153190136,0.12015079520642757,0.035391432233154774,-0.021687574684619904,-0.02613433450460434,-0.015849912306293845,0.1276887645944953,0.03490307740867138,-0.03190852329134941,-0.009403809905052185,-0.08404111862182617,-0.0410739928483963,-0.024537045508623123,-0.0026189652271568775,0.0011838856153190136,0.12015079520642757,0.035391432233154774,-0.021687574684619904,-0.02613433450460434,-0.01380582709097089,0.13209279006793018,0.038349519697141066,-0.01687378866674205,-0.0,-0.05062136600022615,-0.02914563496982714,-0.03067961575771294,-0.003067961575771161,-0.0015339807878858025,0.10908307824964582,0.05143812554862037,-0.013635384781205503,-0.017078319438459985,,,,,,
13.837138154000058,0.0,0.0,0.22252947962927702,-0.1908953869368798,0.22580197197676638,-0.04691147866584207,0.031614257361763126,-0.9983986437795518,1.0,1.0,-0.07671776931843206,-0.0,-0.0,-0.0,-0.0,-0.0,-0.0,0.0,0.0,0.07671776931843206,0.0,0.0,0.0,-0.15343553863686413,-0.08016825467348099,0.022428292781114578,0.10364602506160736,0.03561573475599289,0.19540759921073914,0.4869523048400879,0.39947509765625,-0.09283776581287384,-0.014597119763493538,-0.016463270410895348,-0.009553134441375732,0.10531219840049744,0.06980199366807938,0.12113582342863083,-0.01759860268794,0.12778012175112963,0.03428908623754978,-0.030365975573658943,-0.006998635828495026,-0.08613063395023346,-0.04202648997306824,-0.02320944145321846,-0.0036492799408733845,7.29723833501339e-05,0.11978476494550705,0.038021755404770374,-0.02181941084563732,-0.025566579774022102,-0.01759860268794,0.12778012175112963,0.03428908623754978,-0.030365975573658943,-0.006998635828495026,-0.08613063395023346,-0.04202648997306824,-0.02320944145321846,-0.0036492799408733845,7.29723833501339e-05,0.11978476494550705,0.038021755404770374,-0.02181941084563732,-0.025566579774022102,-0.015339807878856249,0.13209279006793018,0.038349519697141066,-0.01687378866674205,-0.0,-0.05062136600022615,-0.02914563496982714,-0.03067961575771294,-0.003067961575771161,-0.0015339807878858025,0.10908307824964582,0.05143812554862037,-0.013635384781205503,-0.02014628101423159,,,,,,
13.857168880000017,0.0,0.0,0.28034351110158917,-0.09490227807719166,0.2007128639793479,-0.05201033606671609,0.022435831244465763,-0.9983944903787266,1.0,1.0,0.0,-0.0,-0.0,-0.0,-0.0,-0.0,-0.0,0.0,0.07671776931843206,-0.0,0.07671776931843206,0.0,0.0,-0.07671776931843206,-0.07846231758594513,0.018187787383794785,0.10186611115932465,0.021630048751831055,0.19391848146915436,0.49606335163116455,0.4064561724662781,-0.08991943299770355,-0.008089892566204071,-0.007686150725930929,-0.003356529865413904,0.09886640310287476,0.06056177616119385,0.10276564955711365,-0.017172118416056037,0.12671999540179968,0.0338441077619791,-0.0338623970746994,-0.00737091526389122,-0.0838528722524643,-0.04028122127056122,-0.022479858249425888,-0.0020224731415510178,0.0022672523045912385,0.1213339160894975,0.036410306580364704,-0.024129465222358704,-0.030159123241901398,-0.017172118416056037,0.12671999540179968,0.0338441077619791,-0.0338623970746994,-0.00737091526389122,-0.0838528722524643,-0.04028122127056122,-0.022479858249425888,-0.0020224731415510178,0.0022672523045912385,0.1213339160894975,0.036410306580364704,-0.024129465222358704,-0.030159123241901398,-0.015339807878856249,0.13055880928004437,0.038349519697141066,-0.01687378866674205,-0.0,-0.05062136600022615,-0.02914563496982714,-0.03067961575771294,-0.0015339807878858025,-0.0015339807878858025,0.11061705903753118,0.04990414476073457,-0.015169365569091306,-0.02014628101423159,,,,,,
13.878189755999983,0.0,0.0,0.3076142806640006,-0.018544123302439753,0.11671889372712078,-0.05201650358894507,0.016318903086727867,-0.9985128826191614,1.0,1.0,0.0,-0.07671776931843206,-0.0,-0.0,-0.0,-0.0,-0.0,0.0,0.0,-0.0,0.07671776931843206,-0.07671776931843206,-0.07671776931843206,0.0,-0.08265696465969086,0.020042529329657555,0.10096247494220734,0.01070547103881836,0.1928136944770813,0.5019916296005249,0.4112764000892639,-0.09087716042995453,-0.0037528537213802338,0.0003992505371570587,-0.0017865248955786228,0.09292776882648468,0.05269809812307358,0.08350521326065063,-0.01822078018449247,0.12718368088826537,0.033618198707699776,-0.036593541502952576,-0.007647112011909485,-0.0823708027601242,-0.03907616436481476,-0.022719290107488632,-0.0009382134303450584,0.0042886026203632355,0.12172641733195633,0.034925648011267185,-0.02609538473188877,-0.03497423231601715,-0.01822078018449247,0.12718368088826537,0.033618198707699776,-0.036593541502952576,-0.007647112011909485,-0.0823708027601242,-0.03907616436481476,-0.022719290107488632,-0.0009382134303450584,0.0042886026203632355,0.12172641733195633,0.034925648011267185,-0.02609538473188877,-0.03497423231601715,-0.015339807878856249,0.13055880928004437,0.038349519697141066,-0.01687378866674205,-0.0,-0.05062136600022615,-0.02914563496982714,-0.02914563496982714,-0.0015339807878858025,-0.0,0.11215103982541698,0.04990414476073457,-0.015169365569091306,-0.02014628101423159,right_hip_pitch,12,6.5,32,76,3
13.898335258000088,0.0,0.0,0.2519819107566813,-0.009817477042468103,0.1505346479845109,-0.05303731780094136,0.011219432611737596,-0.9985295024446461,1.0,1.0,0.0,-0.0,-0.0,-0.0,-0.07671776931843206,-0.07671776931843206,-0.0,0.07671776931843206,0.0,0.07671776931843206,0.0,0.0,0.0,0.0,-0.08223201334476471,0.020421192049980164,0.09880271553993225,0.016129955649375916,0.18636399507522583,0.49669349193573,0.4101208448410034,-0.09330447763204575,-0.0021879002451896667,-0.0037824902683496475,-0.0029726666398346424,0.0913044810295105,0.0534367710351944,0.08494916558265686,-0.018114542355760932,0.12727834656834602,0.033078258857131004,-0.03523742035031319,-0.009259536862373352,-0.08369533717632294,-0.03936505317687988,-0.023326119408011436,-0.0005469750612974167,0.003243167418986559,0.12142988189589232,0.03451982606202364,-0.025910716503858566,-0.034613244235515594,-0.018114542355760932,0.12727834656834602,0.033078258857131004,-0.03523742035031319,-0.009259536862373352,-0.08369533717632294,-0.03936505317687988,-0.023326119408011436,-0.0005469750612974167,0.003243167418986559,0.12142988189589232,0.03451982606202364,-0.025910716503858566,-0.034613244235515594,-0.015339807878856249,0.13055880928004437,0.038349519697141066,-0.018407769454627854,-0.0015339807878858025,-0.052155346788111956,-0.02914563496982714,-0.02914563496982714,-0.0015339807878858025,-0.0,0.11215103982541698,0.04990414476073457,-0.015169365569091306,-0.02014628101423159,,,,,,
13.917710291000049,0.0,0.0,0.1712604328519436,-0.03490658503988659,0.2007128639793479,-0.05303889034255192,0.008159829283469526,-0.9985591085645833,1.0,1.0,-0.07671776931843206,-0.0,-0.0,-0.07671776931843206,-0.0,-0.07671776931843206,-0.0,0.0,0.0,-0.0,0.0,-0.07671776931843206,0.0,0.0,-0.08847098797559738,0.015946151688694954,0.08929650485515594,0.03271171450614929,0.19164912402629852,0.48081308603286743,0.40604299306869507,-0.08557998389005661,-0.0023292265832424164,-0.0135691799223423,-0.00024082371965050697,0.10595548152923584,0.05857320874929428,0.1003156453371048,-0.0196742860134691,0.12615958647802472,0.030701706185936928,-0.031091980636119843,-0.007938254624605179,-0.08766543865203857,-0.04038451611995697,-0.021394995972514153,-0.0005823066458106041,0.0007964950054883957,0.12211284262593836,0.038182576186954975,-0.024626607075333595,-0.03077162429690361,-0.0196742860134691,0.12615958647802472,0.030701706185936928,-0.031091980636119843,-0.007938254624605179,-0.08766543865203857,-0.04038451611995697,-0.021394995972514153,-0.0005823066458106041,0.0007964950054883957,0.12211284262593836,0.038182576186954975,-0.024626607075333595,-0.03077162429690361,-0.018407769454627854,0.12902482849215902,0.038349519697141066,-0.018407769454627854,-0.0015339807878858025,-0.05522330836388312,-0.02914563496982714,-0.02914563496982714,-0.0015339807878858025,-0.0,0.11215103982541698,0.04837016397284921,-0.01670334635697711,-0.02014628101423159,,,,,,
13.937785534000113,0.0,0.0,0.18544123302439752,-0.03381575425739013,0.19525871006686563,-0.0540570131622543,0.00509971822285418,-0.9985248280348484,1.0,1.0,-0.07671776931843206,-0.07671776931843206,-0.0,-0.07671776931843206,-0.07671776931843206,-0.15343553863686413,-0.0,0.0,0.0,0.07671776931843206,-0.07671776931843206,0.0,-0.07671776931843206,0.0,-0.08433366566896439,0.01809702441096306,0.0945303738117218,0.03609169274568558,0.1896584928035736,0.47181951999664307,0.4057488441467285,-0.09870840609073639,-0.0035169795155525208,-0.0038132835179567337,-0.005568217020481825,0.10364395380020142,0.056698404252529144,0.10462097078561783,-0.01863995543681085,0.12669730465859175,0.03201017342507839,-0.03024698607623577,-0.008435912430286407,-0.08991383016109467,-0.04045805335044861,-0.024677101522684097,-0.0008792448788881302,0.0032354691065847874,0.12078099430073053,0.03760469425469637,-0.02509530819952488,-0.029695292934775352,-0.01863995543681085,0.12669730465859175,0.03201017342507839,-0.03024698607623577,-0.008435912430286407,-0.08991383016109467,-0.04045805335044861,-0.024677101522684097,-0.0008792448788881302,0.0032354691065847874,0.12078099430073053,0.03760469425469637,-0.02509530819952488,-0.029695292934775352,-0.018407769454627854,0.12902482849215902,0.038349519697141066,-0.021475731030399015,-0.003067961575771161,-0.05829126993965428,-0.02914563496982714,-0.02914563496982714,-0.0015339807878858025,0.0015339807878858025,0.11061705903753118,0.04837016397284921,-0.01670334635697711,-0.02168026180211695,,,,,,
13.957878592000043,0.0,0.0,0.11017390903214205,-0.001090830782496456,0.05235987755982989,-0.0540576036362999,0.002039909571181128,-0.9985357350931623,1.0,1.0,0.0,-0.0,-0.0,-0.15343553863686413,-0.0,-0.2301533079552962,-0.0,0.0,0.0,-0.0,0.0,0.0,0.0,-0.15343553863686413,-0.08071945607662201,0.015547798946499825,0.08956538140773773,0.04840126633644104,0.18646429479122162,0.45771944522857666,0.3996087312698364,-0.10279068350791931,0.0042258091270923615,-0.014330496080219746,-0.0042632692493498325,0.11328108608722687,0.06266596913337708,0.11063196510076523,-0.017736403038725257,0.12605999829247594,0.030768925324082375,-0.027169592678546906,-0.009234461933374405,-0.09343884885311127,-0.04199308156967163,-0.025697670876979828,0.0010564522817730904,0.0006061659660190344,0.12110723124351352,0.04001397732645273,-0.023603416979312897,-0.028192544355988503,-0.017736403038725257,0.12605999829247594,0.030768925324082375,-0.027169592678546906,-0.009234461933374405,-0.09343884885311127,-0.04199308156967163,-0.025697670876979828,0.0010564522817730904,0.0006061659660190344,0.12110723124351352,0.04001397732645273,-0.023603416979312897,-0.028192544355988503,-0.018407769454627854,0.12902482849215902,0.038349519697141066,-0.023009711818284817,-0.003067961575771161,-0.06289321230331124,-0.02914563496982714,-0.02914563496982714,-0.0015339807878858025,0.0015339807878858025,0.11061705903753118,0.04837016397284921,-0.01670334635697711,-0.024748223377888554,,,,,,
13.978827062000164,0.0,0.0,0.04254240051736178,0.007635815477475192,-0.09599310885968812,-0.05405768799131455,0.0010199563771946141,-0.9985372932735274,1.0,1.0,0.0,-0.0,-0.0,-0.0,-0.0,-0.15343553863686413,-0.0,0.0,-0.07671776931843206,-0.0,-0.07671776931843206,0.0,0.0,-0.07671776931843206,-0.07824230194091797,0.02420494146645069,0.08889392018318176,0.05866298824548721,0.18429505825042725,0.44718608260154724,0.4000611901283264,-0.11235763877630234,0.003349674865603447,-0.016018887981772423,-0.012442309409379959,0.11688145995140076,0.06378059089183807,0.11937712877988815,-0.017117114504799247,0.12822428392246366,0.030601060017943382,-0.024604162201285362,-0.009776771068572998,-0.09607218950986862,-0.04187996685504913,-0.028089409694075584,0.0008374187164008617,0.0001840679906308651,0.11906247120350599,0.040914070792496204,-0.023324761539697647,-0.02600625343620777,-0.017117114504799247,0.12822428392246366,0.030601060017943382,-0.024604162201285362,-0.009776771068572998,-0.09607218950986862,-0.04187996685504913,-0.028089409694075584,0.0008374187164008617,0.0001840679906308651,0.11906247120350599,0.040914070792496204,-0.023324761539697647,-0.02600625343620777,-0.018407769454627854,0.13209279006793018,0.038349519697141066,-0.023009711818284817,-0.003067961575771161,-0.06442719309119704,-0.02914563496982714,-0.02914563496982714,-0.003067961575771161,-0.0,0.10908307824964582,0.04837016397284921,-0.01670334635697711,-0.026282204165773912,left_knee,23,6.6,30,1047,0
13.997940710999956,0.0,0.0,0.019634954084936207,-0.025089107997418487,-0.09817477042468103,-0.05405771610974053,-0.0,-0.9985378126686033,1.0,1.0,0.0,0.15343553863686413,-0.0,-0.0,-0.0,-0.07671776931843206,-0.0,0.0,-0.15343553863686413,-0.07671776931843206,0.0,0.0,0.0,-0.07671776931843206,-0.07625024765729904,0.02536769025027752,0.08918064832687378,0.06286253035068512,0.1753927618265152,0.44067278504371643,0.4025592803955078,-0.11425509303808212,-0.0007661264389753342,-0.02231008931994438,-0.013286774978041649,0.11667487025260925,0.06227699667215347,0.11685136705636978,-0.016619100933894515,0.12851497111842036,0.030672742053866386,-0.023554276674985886,-0.01200234517455101,-0.09770051389932632,-0.041255444288253784,-0.02856377325952053,-0.00019153160974383354,-0.0013887323439121246,0.11885135481134057,0.04086242336779833,-0.023700660094618797,-0.026637693867087364,-0.016619100933894515,0.12851497111842036,0.030672742053866386,-0.023554276674985886,-0.01200234517455101,-0.09770051389932632,-0.041255444288253784,-0.02856377325952053,-0.00019153160974383354,-0.0013887323439121246,0.11885135481134057,0.04086242336779833,-0.023700660094618797,-0.026637693867087364,-0.018407769454627854,0.13362677085581598,0.038349519697141066,-0.023009711818284817,-0.003067961575771161,-0.0659611738790824,-0.02914563496982714,-0.02914563496982714,-0.006135923151542766,-0.0015339807878858025,0.10908307824964582,0.04837016397284921,-0.01670334635697711,-0.026282204165773912,,,,,,
14.017975455000169,0.0,0.0,0.050178215994836975,-0.030543261909900768,-0.1090830782496456,-0.05507460783200715,-0.0,-0.9984822419913889,1.0,1.0,0.0,0.07671776931843206,-0.0,-0.0,-0.0,-0.0,-0.0,0.0,-0.07671776931843206,-0.07671776931843206,0.0,0.0,0.0,-0.07671776931843206,-0.07844660431146622,0.022636739537119865,0.08920484781265259,0.05658823251724243,0.1824827492237091,0.4351678788661957,0.40457314252853394,-0.11735647171735764,-0.006490930914878845,-0.019873183220624924,-0.012132810428738594,0.1151188313961029,0.05960795283317566,0.10968808829784393,-0.01716819009743631,0.12783223344013095,0.03067879192531109,-0.025122851133346558,-0.010229848325252533,-0.09907674044370651,-0.04075197875499725,-0.02933911792933941,-0.0016227327287197113,-0.0007795058190822601,0.11913984594866633,0.04047341365367174,-0.02436792105436325,-0.028428513556718826,-0.01716819009743631,0.12783223344013095,0.03067879192531109,-0.025122851133346558,-0.010229848325252533,-0.09907674044370651,-0.04075197875499725,-0.02933911792933941,-0.0016227327287197113,-0.0007795058190822601,0.11913984594866633,0.04047341365367174,-0.02436792105436325,-0.028428513556718826,-0.018407769454627854,0.13362677085581598,0.03681553890925526,-0.023009711818284817,-0.003067961575771161,-0.0659611738790824,-0.02914563496982714,-0.03067961575771294,-0.007669903939428124,-0.003067961575771161,0.10908307824964582,0.04837016397284921,-0.01670334635697711,-0.027816184953659714,,,,,,
14.038062939000156,0.0,0.0,-0.0272707695624114,0.001090830782496456,-0.18544123302439752,-0.05507460783200715,-0.0,-0.9984822419913889,1.0,1.0,0.07671776931843206,-0.0,-0.07671776931843206,-0.0,-0.0,-0.07671776931843206,-0.0,-0.07671776931843206,0.0,-0.07671776931843206,0.0,0.0,0.0,0.0,-0.0731167197227478,0.03048260137438774,0.08437909185886383,0.0604022815823555,0.16356977820396423,0.43748483061790466,0.4051336646080017,-0.13635405898094177,-0.0015024729073047638,-0.022092968225479126,-0.01527237519621849,0.10552676022052765,0.055382199585437775,0.10300405323505402,-0.015835718950256705,0.12979369889944792,0.0294723529368639,-0.02416933886706829,-0.014958091080188751,-0.09849750250577927,-0.04061184823513031,-0.03408851474523544,-0.00037561822682619095,-0.0013344520702958107,0.11835495475679636,0.03807539585977793,-0.025424359366297722,-0.030099522322416306,-0.015835718950256705,0.12979369889944792,0.0294723529368639,-0.02416933886706829,-0.014958091080188751,-0.09849750250577927,-0.04061184823513031,-0.03408851474523544,-0.00037561822682619095,-0.0013344520702958107,0.11835495475679636,0.03807539585977793,-0.025424359366297722,-0.030099522322416306,-0.01687378866674205,0.13516075164370134,0.03681553890925526,-0.023009711818284817,-0.003067961575771161,-0.0674951546669682,-0.02914563496982714,-0.0322135965455983,-0.007669903939428124,-0.003067961575771161,0.10908307824964582,0.04837016397284921,-0.01670334635697711,-0.027816184953659714,,,,,,
14.058128312000008,0.0,0.0,-0.028361600344907856,0.022907446432425576,-0.12435470920459599,-0.05507460783200715,-0.0,-0.9984822419913889,1.0,1.0,0.0,0.07671776931843206,-0.0,-0.0,-0.0,-0.0,-0.0,-0.07671776931843206,0.0,-0.0,0.0,0.0,0.0,0.0,-0.06908801943063736,0.029347125440835953,0.08074414730072021,0.0699051171541214,0.16175530850887299,0.4370999038219452,0.4054144620895386,-0.15013031661510468,0.0002500377595424652,-0.026923030614852905,-0.016618842259049416,0.10972324013710022,0.05332484096288681,0.10307379066944122,-0.014828543877229095,0.12950982991605997,0.028563616797327995,-0.021793629974126816,-0.015411708503961563,-0.09859373420476913,-0.040541648864746094,-0.03753257915377617,6.25094398856163e-05,-0.0025419676676392555,0.11801833799108863,0.03912451583892107,-0.025938699021935463,-0.030082087963819504,-0.014828543877229095,0.12950982991605997,0.028563616797327995,-0.021793629974126816,-0.015411708503961563,-0.09859373420476913,-0.040541648864746094,-0.03753257915377617,6.25094398856163e-05,-0.0025419676676392555,0.11801833799108863,0.03912451583892107,-0.025938699021935463,-0.030082087963819504,-0.015339807878856249,0.13516075164370134,0.03681553890925526,-0.023009711818284817,-0.003067961575771161,-0.0674951546669682,-0.02914563496982714,-0.0337475773334841,-0.007669903939428124,-0.003067961575771161,0.10908307824964582,0.04837016397284921,-0.01670334635697711,-0.027816184953659714,,,,,,
14.079386833000171,0.0,0.0,-0.028361600344907856,0.020725784867432664,-0.06654067773228381,-0.05405771610974053,-0.0,-0.9985378126686033,1.0,1.0,0.07671776931843206,-0.0,-0.0,-0.0,-0.0,-0.0,-0.0,-0.15343553863686413,-0.07671776931843206,-0.0,0.0,0.0,0.0,0.0,-0.06863002479076385,0.027180494740605354,0.07870069146156311,0.07029326260089874,0.15873119235038757,0.4417310059070587,0.40366607904434204,-0.15305162966251373,-0.0006725713610649109,-0.025274639949202538,-0.013871829956769943,0.10666777193546295,0.04966994374990463,0.09826186299324036,-0.014714045217260718,0.12896817224100232,0.02805275283753872,-0.02169659361243248,-0.016167737543582916,-0.09743595868349075,-0.04097874462604523,-0.03826290741562843,-0.00016814284026622772,-0.0021298700012266636,0.1187050910666585,0.03836064878851175,-0.026852423325181007,-0.03128506988286972,-0.014714045217260718,0.12896817224100232,0.02805275283753872,-0.02169659361243248,-0.016167737543582916,-0.09743595868349075,-0.04097874462604523,-0.03826290741562843,-0.00016814284026622772,-0.0021298700012266636,0.1187050910666585,0.03836064878851175,-0.026852423325181007,-0.03128506988286972,-0.015339807878856249,0.13362677085581598,0.03681553890925526,-0.023009711818284817,-0.003067961575771161,-0.0674951546669682,-0.02914563496982714,-0.035281558121369905,-0.009203884727313927,-0.003067961575771161,0.10908307824964582,0.04837016397284921,-0.01670334635697711,-0.027816184953659714,right_knee,13,6.5,30,61,2
14.098580720999962,0.0,0.0,-0.05999569303730508,0.017453292519943295,-0.016362461737446838,-0.05304062857760574,0.0010200120880308795,-0.9985918341822312,1.0,1.0,0.0,-0.07671776931843206,-0.0,-0.0,0.07671776931843206,-0.0,-0.0,0.0,0.0,-0.0,0.0,0.0,0.0,0.0,-0.06601767241954803,0.026585785672068596,0.07436257600784302,0.07597965002059937,0.1563206911087036,0.44322696328163147,0.4017174243927002,-0.161336287856102,-0.0015278495848178864,-0.031759291887283325,-0.014826377853751183,0.10684584081172943,0.04918978363275528,0.10257303714752197,-0.014060957124456763,0.12881949497386813,0.026968223974108696,-0.020274996757507324,-0.016770362854003906,-0.09706196933984756,-0.04146590828895569,-0.0403340719640255,-0.0003819623962044716,-0.0037510329857468605,0.11846645409241319,0.03840516600757837,-0.026972463354468346,-0.030207276344299316,-0.014060957124456763,0.12881949497386813,0.026968223974108696,-0.020274996757507324,-0.016770362854003906,-0.09706196933984756,-0.04146590828895569,-0.0403340719640255,-0.0003819623962044716,-0.0037510329857468605,0.11846645409241319,0.03840516600757837,-0.026972463354468346,-0.030207276344299316,-0.015339807878856249,0.13209279006793018,0.03681553890925526,-0.023009711818284817,-0.0015339807878858025,-0.0674951546669682,-0.02914563496982714,-0.035281558121369905,-0.009203884727313927,-0.004601942363656963,0.10908307824964582,0.04837016397284921,-0.01670334635697711,-0.027816184953659714,,,,,,
14.118391967999969,0.0,0.0,-0.06544984694978735,0.017453292519943295,-0.015271630954950384,-0.0530405458006326,0.0020400209923320234,-0.9985902757465255,1.0,1.0,0.0,-0.07671776931843206,-0.0,-0.0,-0.0,-0.0,-0.0,0.0,0.0,-0.07671776931843206,0.0,0.0,0.0,0.0,-0.06657473742961884,0.030243514105677605,0.06939207017421722,0.08095625787973404,0.14731572568416595,0.4464508295059204,0.40350085496902466,-0.152517169713974,-0.0011415015906095505,-0.03678897023200989,-0.01681051217019558,0.11004339158535004,0.05017954111099243,0.10143901407718658,-0.014200223376974463,0.12973392708227038,0.025725597515702248,-0.019030844792723656,-0.01902160421013832,-0.09625600278377533,-0.04102005064487457,-0.0381292924284935,-0.0002853753976523876,-0.005008452571928501,0.11797042051330209,0.039204553700983524,-0.026725023984909058,-0.030490782111883163,-0.014200223376974463,0.12973392708227038,0.025725597515702248,-0.019030844792723656,-0.01902160421013832,-0.09625600278377533,-0.04102005064487457,-0.0381292924284935,-0.0002853753976523876,-0.005008452571928501,0.11797042051330209,0.039204553700983524,-0.026725023984909058,-0.030490782111883163,-0.015339807878856249,0.13209279006793018,0.03681553890925526,-0.023009711818284817,-0.0015339807878858025,-0.0674951546669682,-0.02914563496982714,-0.035281558121369905,-0.009203884727313927,-0.004601942363656963,0.10908307824964582,0.04837016397284921,-0.01670334635697711,-0.027816184953659714,,,,,,
14.138471916000071,0.0,0.0,-0.06544984694978735,0.017453292519943295,-0.015271630954950384,-0.0530405458006326,0.0020400209923320234,-0.9985902757465255,1.0,1.0,0.0,-0.0,-0.0,-0.0,-0.0,-0.0,-0.0,0.0,0.0,-0.0,0.0,0.0,0.0,0.0,-0.06703124940395355,0.029807936400175095,0.06753306090831757,0.08535753935575485,0.14650747179985046,0.447054386138916,0.40647661685943604,-0.15396103262901306,-0.001225912943482399,-0.036006465554237366,-0.01617317833006382,0.10852618515491486,0.0482352152466774,0.10516844689846039,-0.014314351370558143,0.12962503265589476,0.025260845199227333,-0.017930524423718452,-0.019223667681217194,-0.09610511362552643,-0.04027611017227173,-0.038490258157253265,-0.00030647823587059975,-0.004812826402485371,0.11812975397333503,0.03882525209337473,-0.027211105450987816,-0.029558423906564713,-0.014314351370558143,0.12962503265589476,0.025260845199227333,-0.017930524423718452,-0.019223667681217194,-0.09610511362552643,-0.04027611017227173,-0.038490258157253265,-0.00030647823587059975,-0.004812826402485371,0.11812975397333503,0.03882525209337473,-0.027211105450987816,-0.029558423906564713,-0.015339807878856249,0.13209279006793018,0.03681553890925526,-0.021475731030399015,-0.0015339807878858025,-0.0674951546669682,-0.02914563496982714,-0.035281558121369905,-0.009203884727313927,-0.004601942363656963,0.10908307824964582,0.04837016397284921,-0.01670334635697711,-0.026282204165773912,,,,,,
14.158880950000139,0.0,0.0,-0.07963064712224129,-0.00545415391248228,0.0719948316447661,-0.05303996637267197,0.005099996766603074,-0.998579366900882,1.0,1.0,0.0,-0.07671776931843206,-0.0,0.15343553863686413,-0.0,-0.0,-0.0,0.0,0.07671776931843206,-0.0,0.0,0.0,0.0,0.07671776931843206,-0.06742244958877563,0.025782600045204163,0.06595675647258759,0.09045906364917755,0.14824219048023224,0.4458373785018921,0.4046913981437683,-0.14775562286376953,0.001042662188410759,-0.03749467432498932,-0.01476205512881279,0.11027930676937103,0.05055903643369675,0.10980013757944107,-0.014412151416763663,0.12861869856715202,0.024866769090294838,-0.016655143350362778,-0.01878998801112175,-0.09640936553478241,-0.04072241485118866,-0.03693890571594238,0.00026066554710268974,-0.005184878595173359,0.11848253477364779,0.03926353249698877,-0.02663015015423298,-0.028400501236319542,-0.014412151416763663,0.12861869856715202,0.024866769090294838,-0.016655143350362778,-0.01878998801112175,-0.09640936553478241,-0.04072241485118866,-0.03693890571594238,0.00026066554710268974,-0.005184878595173359,0.11848253477364779,0.03926353249698877,-0.02663015015423298,-0.028400501236319542,-0.015339807878856249,0.13055880928004437,0.03681553890925526,-0.018407769454627854,-0.0015339807878858025,-0.0674951546669682,-0.02914563496982714,-0.035281558121369905,-0.007669903939428124,-0.004601942363656963,0.10908307824964582,0.04837016397284921,-0.01670334635697711,-0.026282204165773912,,,,,,
