time_s,forward_cmd_m_s,yaw_cmd_rad_s,gyro_x,gyro_y,gyro_z,grav_x,grav_y,grav_z,left_contact,right_contact,left_hip_yaw_velocity_rad_s,left_hip_roll_velocity_rad_s,left_hip_pitch_velocity_rad_s,left_knee_velocity_rad_s,left_ankle_velocity_rad_s,neck_pitch_velocity_rad_s,head_pitch_velocity_rad_s,head_yaw_velocity_rad_s,head_roll_velocity_rad_s,right_hip_yaw_velocity_rad_s,right_hip_roll_velocity_rad_s,right_hip_pitch_velocity_rad_s,right_knee_velocity_rad_s,right_ankle_velocity_rad_s,left_hip_yaw_action,left_hip_roll_action,left_hip_pitch_action,left_knee_action,left_ankle_action,neck_pitch_action,head_pitch_action,head_yaw_action,head_roll_action,right_hip_yaw_action,right_hip_roll_action,right_hip_pitch_action,right_knee_action,right_ankle_action,left_hip_yaw_unclipped_target_rad,left_hip_roll_unclipped_target_rad,left_hip_pitch_unclipped_target_rad,left_knee_unclipped_target_rad,left_ankle_unclipped_target_rad,neck_pitch_unclipped_target_rad,head_pitch_unclipped_target_rad,head_yaw_unclipped_target_rad,head_roll_unclipped_target_rad,right_hip_yaw_unclipped_target_rad,right_hip_roll_unclipped_target_rad,right_hip_pitch_unclipped_target_rad,right_knee_unclipped_target_rad,right_ankle_unclipped_target_rad,left_hip_yaw_target_rad,left_hip_roll_target_rad,left_hip_pitch_target_rad,left_knee_target_rad,left_ankle_target_rad,neck_pitch_target_rad,head_pitch_target_rad,head_yaw_target_rad,head_roll_target_rad,right_hip_yaw_target_rad,right_hip_roll_target_rad,right_hip_pitch_target_rad,right_knee_target_rad,right_ankle_target_rad,left_hip_yaw_actual_rad,left_hip_roll_actual_rad,left_hip_pitch_actual_rad,left_knee_actual_rad,left_ankle_actual_rad,neck_pitch_actual_rad,head_pitch_actual_rad,head_yaw_actual_rad,head_roll_actual_rad,right_hip_yaw_actual_rad,right_hip_roll_actual_rad,right_hip_pitch_actual_rad,right_knee_actual_rad,right_ankle_actual_rad,telemetry_joint,telemetry_servo_id,voltage_V,temperature_raw,load_word_raw,current_word_raw
24.00851055000001,0.0,0.0,0.14289883250703572,-0.001090830782496456,0.001090830782496456,-0.062210091032710566,-0.10708294358089525,-0.9923019438496293,1.0,1.0,0.0,-0.0,-0.0,-0.0,-0.0,-0.0,-0.0,0.0,0.0,-0.0,0.0,0.0,0.0,0.0,0.003974124789237976,-0.05251855030655861,0.1437045782804489,0.09231659770011902,0.17437557876110077,-0.023813944309949875,0.030944660305976868,0.06952367722988129,-0.022055329754948616,-0.017471397295594215,-0.028388410806655884,0.15713568031787872,0.2147737741470337,0.3456242084503174,0.0034369921777397394,0.10904341097921133,0.04430372454226017,-0.01619075983762741,-0.012256640940904617,-0.2138221962377429,-0.13415909931063652,0.01738091930747032,-0.005513832438737154,-0.00017905933782458305,0.11507594585418701,0.050977625884115696,0.014423534274101257,0.030555516481399536,0.0034369921777397394,0.10904341097921133,0.04430372454226017,-0.01619075983762741,-0.012256640940904617,-0.2138221962377429,-0.13415909931063652,0.01738091930747032,-0.005513832438737154,-0.00017905933782458305,0.11507594585418701,0.050977625884115696,0.0,0.030555516481399536,0.0015339807878858025,0.1198209437648451,0.01380582709097089,-0.003067961575771161,-0.08283496254582445,-0.2147573103039897,-0.13959225169759337,0.003067961575771161,-0.0015339807878858025,0.007669903939428124,0.11368502061330234,0.00388472112416538,-0.005965480841777379,-0.06156376228714382,left_hip_pitch,22,7.7,31,1055,0
24.017593155000014,0.0,0.0,0.003272492347489368,-0.001090830782496456,0.001090830782496456,-0.062210091032710566,-0.10708294358089525,-0.9923019438496293,1.0,1.0,0.0,-0.0,-0.0,-0.15343553863686413,-0.0,-0.0,-0.0,0.0,0.0,-0.0,0.0,0.0,-0.07671776931843206,0.0,0.027850447222590446,-0.05648268386721611,0.09512048959732056,0.05829889327287674,0.1284274309873581,-0.050789300352334976,0.04172177612781525,0.03734176605939865,0.009864572435617447,-0.010984632186591625,-0.026250384747982025,0.16428562998771667,0.22115778923034668,0.406191885471344,0.009406072786077857,0.10805237758904696,0.03215770237147808,-0.02469518594443798,-0.023743677884340286,-0.22056603524833918,-0.13146482035517693,0.009335441514849663,0.0024661431089043617,0.0014426319394260645,0.11561045236885548,0.052765113301575184,0.016019538044929504,0.04569743573665619,0.009406072786077857,0.10805237758904696,0.03215770237147808,-0.02469518594443798,-0.023743677884340286,-0.22056603524833918,-0.13146482035517693,0.009335441514849663,0.0024661431089043617,0.0014426319394260645,0.11561045236885548,0.052765113301575184,0.0,0.04569743573665619,0.0015339807878858025,0.1198209437648451,0.01380582709097089,-0.006135923151542766,-0.0813009817579391,-0.2147573103039897,-0.13959225169759337,0.003067961575771161,-0.0015339807878858025,0.007669903939428124,0.11368502061330234,0.00388472112416538,-0.007499461629663182,-0.06156376228714382,,,,,,
24.037421187000007,0.0,0.0,0.018544123302439753,0.001090830782496456,-0.01090830782496456,-0.062210091032710566,-0.10708294358089525,-0.9923019438496293,1.0,1.0,0.0,-0.0,-0.0,-0.30687107727372825,0.15343553863686413,-0.0,-0.0,0.0,0.0,-0.0,0.0,0.0,-0.30687107727372825,0.0,0.026674436405301094,-0.05878385528922081,0.08022376894950867,0.04721272736787796,0.13365615904331207,-0.06401143968105316,0.042702168226242065,0.047400616109371185,0.019394509494304657,-0.00026510562747716904,-0.029600951820611954,0.1783672422170639,0.21419177949428558,0.43006235361099243,0.009112070081755519,0.10747708473354578,0.02843352220952511,-0.027466727420687675,-0.02243649587035179,-0.22387157008051872,-0.13121972233057022,0.011850154027342796,0.004848627373576164,0.0041225135792046785,0.114772810600698,0.05628551635891199,0.01427803561091423,0.0516650527715683,0.009112070081755519,0.10747708473354578,0.02843352220952511,-0.027466727420687675,-0.02243649587035179,-0.22387157008051872,-0.13121972233057022,0.011850154027342796,0.004848627373576164,0.0041225135792046785,0.114772810600698,0.05628551635891199,0.0,0.0516650527715683,0.0015339807878858025,0.1198209437648451,0.01380582709097089,-0.01380582709097089,-0.07516505860639633,-0.2147573103039897,-0.13959225169759337,0.003067961575771161,-0.0015339807878858025,0.007669903939428124,0.11368502061330234,0.00388472112416538,-0.013635384781205503,-0.06156376228714382,,,,,,
24.056378380000012,0.0,0.0,0.21925698728178766,0.022907446432425576,-0.039269908169872414,-0.18978534347579304,-0.10644045718748181,-0.9760389093040786,1.0,1.0,0.0,-0.0,-0.0,-0.5370243852290244,0.30687107727372825,-0.0,-0.0,0.0,0.0,-0.0,0.0,0.0,-0.3835888465921603,0.0,-0.09250243753194809,-0.11242249608039856,0.024963736534118652,-0.23665347695350647,-0.07638248801231384,-0.31460678577423096,-0.17281541228294373,0.24661600589752197,0.1928822547197342,0.07000400871038437,-0.010580256581306458,0.4497135579586029,0.6167891025543213,0.7605557441711426,-0.020682148402556777,0.09406742453575134,0.014618514105677605,-0.09843327850103378,-0.07494615763425827,-0.28652040660381317,-0.18509911745786667,0.06165400147438049,0.04822056367993355,0.021689792163670063,0.11952798441052437,0.12412209529429674,0.11492736637592316,0.13428840041160583,-0.020682148402556777,0.09406742453575134,0.014618514105677605,-0.09843327850103378,-0.07494615763425827,-0.28652040660381317,-0.18509911745786667,0.06165400147438049,0.04822056367993355,0.021689792163670063,0.11952798441052437,0.12412209529429674,0.0,0.13428840041160583,0.0015339807878858025,0.1198209437648451,0.01380582709097089,-0.023009711818284817,-0.0674951546669682,-0.2147573103039897,-0.13805827090970757,0.003067961575771161,-0.0015339807878858025,0.007669903939428124,0.11368502061330234,0.005418701912051183,-0.021305288720634072,-0.06156376228714382,,,,,,
24.076379938000002,0.0,0.0,0.272707695624114,0.03490658503988659,-0.055632369907319255,-0.18875568604343737,-0.10943813712092912,-0.9759070576288358,1.0,1.0,0.0,-0.0,-0.0,-0.4603066159105924,0.3835888465921603,-0.0,0.07671776931843206,0.0,0.0,-0.0,0.0,0.15343553863686413,-0.4603066159105924,0.15343553863686413,-0.12284392863512039,-0.1462947577238083,-0.06458577513694763,-0.3317646384239197,-0.057025983929634094,-0.3345912992954254,-0.29857292771339417,0.2702508270740509,0.24705228209495544,0.11617386341094971,-0.0856277197599411,0.5306863784790039,0.7349002361297607,0.8916638493537903,-0.028267521178349853,0.08559935912489891,-0.007768863812088966,-0.12221106886863708,-0.07010703161358833,-0.2915165349841118,-0.21653849631547928,0.06756270676851273,0.06176307052373886,0.0332322558388114,0.10076611861586571,0.144365300424397,0.14445514976978302,0.16706542670726776,-0.028267521178349853,0.08559935912489891,-0.007768863812088966,-0.12221106886863708,-0.07010703161358833,-0.2915165349841118,-0.21653849631547928,0.06756270676851273,0.06176307052373886,0.0332322558388114,0.10076611861586571,0.144365300424397,0.0,0.16706542670726776,0.0015339807878858025,0.1198209437648451,0.01380582709097089,-0.0337475773334841,-0.05982525072754008,-0.2147573103039897,-0.1365242901218222,0.003067961575771161,-0.0015339807878858025,0.007669903939428124,0.11368502061330234,0.008486663487822343,-0.030509173447947555,-0.058495800711372656,,,,,,
24.09747366100001,0.0,0.0,0.08399397025222712,0.009817477042468103,-0.06872233929727672,-0.18871383920335566,-0.11142146889134298,-0.9756907005620303,1.0,1.0,0.0,-0.30687107727372825,0.2301533079552962,-0.3835888465921603,0.4603066159105924,-0.0,0.15343553863686413,0.0,0.0,-0.0,0.0,0.30687107727372825,-0.5370243852290244,0.30687107727372825,-0.11073285341262817,-0.20982688665390015,-0.173436239361763,-0.30910834670066833,-0.014613084495067596,-0.32510071992874146,-0.4094788432121277,0.2034299373626709,0.3253905773162842,0.12263849377632141,-0.09869063645601273,0.6132796406745911,0.7887915372848511,0.9100404381752014,-0.025239752372726798,0.06971632689237595,-0.03498147986829281,-0.11654699593782425,-0.05950380675494671,-0.2891438901424408,-0.24426497519016266,0.050857484340667725,0.08134764432907104,0.034848413430154324,0.0975003894418478,0.16501361597329378,0.1579279750585556,0.17165957391262054,-0.025239752372726798,0.06971632689237595,-0.03498147986829281,-0.11654699593782425,-0.05950380675494671,-0.2891438901424408,-0.24426497519016266,0.050857484340667725,0.08134764432907104,0.034848413430154324,0.0975003894418478,0.16501361597329378,0.0,0.17165957391262054,0.0015339807878858025,0.11368502061330234,0.018407769454627854,-0.04141748127291223,-0.05062136600022615,-0.2162912910918755,-0.1334563285460506,0.004601942363656963,-0.0015339807878858025,0.007669903939428124,0.11368502061330234,0.016156567427250468,-0.041247038963147284,-0.05235987755982989,right_hip_pitch,12,7.6,31,1175,6
24.117721879000015,0.0,0.0,0.1908953869368798,0.04363323129985824,-0.10690141668465268,-0.18772441834278292,-0.11243387622669351,-0.9757654258245188,1.0,1.0,0.07671776931843206,-0.30687107727372825,0.2301533079552962,-0.3835888465921603,0.3835888465921603,-0.15343553863686413,0.15343553863686413,0.15343553863686413,0.0,-0.07671776931843206,0.0,0.3835888465921603,-0.2301533079552962,0.3835888465921603,-0.11607510596513748,-0.23081064224243164,-0.19696855545043945,-0.3034522235393524,-0.00356108695268631,-0.30505502223968506,-0.4758194386959076,0.18582166731357574,0.34414204955101013,0.12172023952007294,-0.12646600604057312,0.6446340680122375,0.824569821357727,0.903156042098999,-0.026575315510854125,0.06447038799524307,-0.04086455889046192,-0.11513296514749527,-0.05674080736935139,-0.2841324657201767,-0.26085012406110764,0.046455416828393936,0.08603551238775253,0.034618849866092205,0.0905565470457077,0.1728522228077054,0.1668725460767746,0.16993847489356995,-0.026575315510854125,0.06447038799524307,-0.04086455889046192,-0.11513296514749527,-0.05674080736935139,-0.2841324657201767,-0.26085012406110764,0.046455416828393936,0.08603551238775253,0.034618849866092205,0.0905565470457077,0.1728522228077054,0.0,0.16993847489356995,0.003067961575771161,0.10601511667387421,0.024543692606170175,-0.04755340442445499,-0.04295146206079803,-0.22396119503130363,-0.13192234775816525,0.007669903939428124,-0.0015339807878858025,0.006135923151542766,0.11368502061330234,0.025360452154564395,-0.04584898132680425,-0.044689973620401766,,,,,,
24.137177688999998,0.0,0.0,-0.11235557059713497,0.1090830782496456,-0.10471975511965978,-0.18580722780775125,-0.11148433668465076,-0.9762412185358607,1.0,1.0,-0.07671776931843206,-0.2301533079552962,0.30687107727372825,-0.2301533079552962,0.3835888465921603,-0.3835888465921603,-0.0,0.07671776931843206,0.07671776931843206,0.07671776931843206,0.0,0.4603066159105924,-0.07671776931843206,0.4603066159105924,-0.1154722049832344,-0.2765491008758545,-0.2602282464504242,-0.22577589750289917,0.07994812726974487,-0.3196870982646942,-0.5479344129562378,0.12494490295648575,0.45128318667411804,0.14918752014636993,-0.09427721053361893,0.8040817379951477,0.8102477788925171,0.8300368189811707,-0.026424590265378356,0.05303577333688736,-0.05667948164045811,-0.09571388363838196,-0.03586350381374359,-0.287790484726429,-0.2788788676261902,0.031236225739121437,0.11282079666852951,0.041485670022666454,0.09860374592244625,0.21271414030343294,0.1632920354604721,0.15165866911411285,-0.026424590265378356,0.05303577333688736,-0.05667948164045811,-0.09571388363838196,-0.03586350381374359,-0.287790484726429,-0.2788788676261902,0.031236225739121437,0.11282079666852951,0.041485670022666454,0.09860374592244625,0.21271414030343294,0.0,0.15165866911411285,0.0,0.10141317431021725,0.02914563496982714,-0.053689327575997314,-0.035281558121369905,-0.23316507975861755,-0.1334563285460506,0.010737865515199285,0.0015339807878858025,0.009203884727313927,0.11368502061330234,0.036098317669764124,-0.047382962114689606,-0.03548608889308784,,,,,,
24.156484862000013,0.0,0.0,-0.34797501961636945,0.04363323129985824,-0.07526732399225546,-0.05712201414630422,-0.1081238124912187,-0.9924949957920358,1.0,1.0,-0.3835888465921603,-0.4603066159105924,0.07671776931843206,-0.15343553863686413,0.30687107727372825,-0.4603066159105924,-0.15343553863686413,0.30687107727372825,0.07671776931843206,0.3835888465921603,0.0,0.6137421545474565,0.0,0.4603066159105924,-0.05359109491109848,-0.10640954971313477,0.018534891307353973,-0.001457810401916504,0.24537551403045654,-0.03685017675161362,-0.296165406703949,-0.013513561338186264,0.14595955610275269,0.17446903884410858,-0.05591173842549324,0.5908441543579102,0.10571689903736115,0.38123220205307007,-0.010954312747344375,0.09557066112756729,0.013011302798986435,-0.03963436186313629,0.005493342876434326,-0.21708125434815884,-0.21593661606311798,-0.003378390334546566,0.03648988902568817,0.047806049697101116,0.10819511394947767,0.15940474439412355,-0.01284068450331688,0.03945751488208771,-0.010954312747344375,0.09557066112756729,0.013011302798986435,-0.03963436186313629,0.005493342876434326,-0.21708125434815884,-0.21593661606311798,-0.003378390334546566,0.03648988902568817,0.047806049697101116,0.10819511394947767,0.15940474439412355,-0.01284068450331688,0.04685866911411285,-0.010737865515199285,0.09374327037078913,0.03067961575771294,-0.05675728915176892,-0.03067961575771294,-0.24390294527381684,-0.13805827090970757,0.019941750242513212,0.0015339807878858025,0.01687378866674205,0.11368502061330234,0.04683618318496341,-0.047382962114689606,-0.026282204165773912,,,,,,
24.176571609999996,0.0,0.0,-0.4385139745635753,-0.09381144729469522,-0.23671027980173096,-0.05812910845087488,-0.09994127417869715,-0.9932938882658268,1.0,1.0,-0.4603066159105924,-0.3835888465921603,-0.0,-0.3835888465921603,0.2301533079552962,-0.6137421545474565,-0.30687107727372825,0.4603066159105924,0.15343553863686413,0.30687107727372825,0.0,0.5370243852290244,0.0,0.6137421545474565,-0.07223404943943024,-0.11048738658428192,0.12757641077041626,0.08929163962602615,0.3422786593437195,-0.04430374503135681,-0.18145351111888885,0.022687284275889397,0.07615315914154053,0.1223897784948349,-0.028600119054317474,0.636210024356842,-0.11096152663230896,0.23604831099510193,-0.015615051379427314,0.0945512019097805,0.04027168266475201,-0.016946999356150627,0.02971912920475006,-0.21894464641809464,-0.18725864216685295,0.005671821068972349,0.019038289785385132,0.034786234609782696,0.11502301879227161,0.17074621189385653,-0.0670102909207344,0.0031615421175956726,-0.015615051379427314,0.0945512019097805,0.04027168266475201,-0.016946999356150627,0.02971912920475006,-0.21894464641809464,-0.18725864216685295,0.005671821068972349,0.019038289785385132,0.034786234609782696,0.11502301879227161,0.17074621189385653,-0.0670102909207344,0.0031615421175956726,-0.018407769454627854,0.086073366431361,0.03067961575771294,-0.06442719309119704,-0.026077673394055978,-0.25617479157690193,-0.1457281748491357,0.02914563496982714,0.007669903939428124,0.024543692606170175,0.11061705903753118,0.0606420102759343,-0.047382962114689606,-0.014010357862688824,,,,,,
24.19756405000001,0.0,0.0,-0.40251655874119224,-0.20507618710933373,-0.6163193921104976,-0.060208564215534895,-0.09184357253217187,-0.9939515516259491,1.0,1.0,-0.30687107727372825,-0.3835888465921603,-0.15343553863686413,-0.4603066159105924,0.30687107727372825,-0.6137421545474565,-0.3835888465921603,0.4603066159105924,0.3835888465921603,0.4603066159105924,-0.2301533079552962,0.7671776931843206,0.07671776931843206,0.7671776931843206,-0.08559480309486389,-0.12907449901103973,0.20209527015686035,0.11024613678455353,0.4239489436149597,-0.10909098386764526,-0.12742473185062408,0.06194813549518585,0.05147097632288933,0.09799084812402725,-0.03878176212310791,0.6858493685722351,-0.20870116353034973,0.13882777094841003,-0.018955239793285728,0.08990442380309105,0.05890139751136303,-0.011708375066518784,0.05013670027256012,-0.23514145612716675,-0.17375144734978676,0.015487033873796463,0.012867744080722332,0.028686502017080784,0.112477608025074,0.1831560479477048,-0.0914452001452446,-0.0211435928940773,-0.018955239793285728,0.08990442380309105,0.05890139751136303,-0.011708375066518784,0.05013670027256012,-0.23514145612716675,-0.17375144734978676,0.015487033873796463,0.012867744080722332,0.028686502017080784,0.112477608025074,0.1831560479477048,-0.0914452001452446,-0.0211435928940773,-0.023009711818284817,0.07840346249193288,0.027611654181941336,-0.07363107781851097,-0.023009711818284817,-0.268446637879987,-0.15646604036433542,0.03681553890925526,0.015339807878856249,0.0337475773334841,0.10754909746176002,0.07598181815479055,-0.04584898132680425,0.0013294500161674244,left_knee,23,6.9,31,1175,9
24.21664513800002,0.0,0.0,-0.6119560689805118,-0.16471544815696484,-0.6403176693254197,-0.06324456604302732,-0.08262596531427763,-0.9945718047088974,1.0,1.0,-0.15343553863686413,-0.15343553863686413,-0.07671776931843206,-0.30687107727372825,0.07671776931843206,-0.4603066159105924,-0.5370243852290244,0.3835888465921603,0.3835888465921603,0.3835888465921603,-0.15343553863686413,0.7671776931843206,0.0,0.8438954625027527,-0.09201502799987793,-0.16105987131595612,0.26204749941825867,0.09584997594356537,0.4723573923110962,-0.16095305979251862,-0.07843539863824844,0.11579226702451706,0.10246501863002777,0.1216493546962738,-0.029106561094522476,0.8023146986961365,-0.3398877680301666,0.042370155453681946,-0.020560296019539237,0.08190808072686195,0.07388945482671261,-0.015307415276765823,0.06223881244659424,-0.24810697510838509,-0.16150411404669285,0.028948066756129265,0.025616254657506943,0.03460112866014242,0.11489640828222036,0.21227238047868013,-0.12424185127019882,-0.04525799676775932,-0.020560296019539237,0.08190808072686195,0.07388945482671261,-0.015307415276765823,0.06223881244659424,-0.24810697510838509,-0.16150411404669285,0.028948066756129265,0.025616254657506943,0.03460112866014242,0.11489640828222036,0.21227238047868013,-0.12424185127019882,-0.04525799676775932,-0.024543692606170175,0.07380152012827591,0.026077673394055978,-0.07976700097005329,-0.021475731030399015,-0.27918450339518674,-0.1702718674553063,0.04295146206079803,0.026077673394055978,0.03988350048502687,0.10448113588598885,0.09132162603364724,-0.04584898132680425,0.019737219470795278,,,,,,
24.236718311000004,0.0,0.0,-0.6403176693254197,-0.019634954084936207,-0.22689280275926285,-0.06323959803774443,-0.07037955265490912,-0.9955136723361058,1.0,1.0,-0.07671776931843206,-0.15343553863686413,-0.0,-0.2301533079552962,0.07671776931843206,-0.3835888465921603,-0.7671776931843206,0.2301533079552962,0.6137421545474565,0.2301533079552962,-0.07671776931843206,0.8438954625027527,0.0,0.9206132318211848,-0.11571968346834183,-0.16277264058589935,0.26267561316490173,0.07225728034973145,0.491260290145874,-0.197430819272995,-0.04909038171172142,0.16711705923080444,0.14934813976287842,0.1339925080537796,-0.015418237075209618,0.8461424708366394,-0.394052654504776,0.032020241022109985,-0.02648645988665521,0.08147988840937614,0.07404648326337337,-0.021205589175224304,0.0669645369052887,-0.2572264149785042,-0.1541678598150611,0.04177926480770111,0.037337034940719604,0.03768691699951887,0.11831848928704858,0.22322932351380587,-0.13778307288885117,-0.04784547537565231,-0.02648645988665521,0.08147988840937614,0.07404648326337337,-0.021205589175224304,0.0669645369052887,-0.2572264149785042,-0.1541678598150611,0.04177926480770111,0.037337034940719604,0.03768691699951887,0.11831848928704858,0.22322932351380587,-0.13778307288885117,-0.04784547537565231,-0.026077673394055978,0.07073355855250475,0.026077673394055978,-0.08283496254582445,-0.018407769454627854,-0.28685440733461487,-0.18561167533416256,0.04448544284868339,0.038349519697141066,0.04448544284868339,0.10448113588598885,0.10666143391250349,-0.04584898132680425,0.03814498892542313,,,,,,
24.25677359400001,0.0,0.0,-0.5094179754258449,-0.04363323129985824,-0.4406956361285682,-0.06328174807116134,-0.06021972800320192,-0.9961771954427979,1.0,1.0,0.07671776931843206,-0.0,-0.0,-0.07671776931843206,0.15343553863686413,-0.15343553863686413,-0.6904599238658886,0.0,0.6137421545474565,0.15343553863686413,0.0,0.6137421545474565,0.0,0.9206132318211848,-0.12168649584054947,-0.16595304012298584,0.2829062342643738,0.08455732464790344,0.513995885848999,-0.2357984185218811,-0.05661677569150925,0.18832509219646454,0.19416013360023499,0.1325252652168274,-0.0126543790102005,0.866935670375824,-0.39786311984062195,0.015135020017623901,-0.027978162979707122,0.08068478852510452,0.07910413853824139,-0.018130578100681305,0.07264843583106995,-0.2668183147907257,-0.15604945831000805,0.047081273049116135,0.048540033400058746,0.03732010629028082,0.11900945380330086,0.228427623398602,-0.13873568922281265,-0.052066780626773834,-0.027978162979707122,0.08068478852510452,0.07910413853824139,-0.018130578100681305,0.07264843583106995,-0.2668183147907257,-0.15604945831000805,0.047081273049116135,0.048540033400058746,0.03732010629028082,0.11900945380330086,0.228427623398602,-0.13873568922281265,-0.052066780626773834,-0.023009711818284817,0.07073355855250475,0.026077673394055978,-0.08436894333371026,-0.015339807878856249,-0.29145634969827183,-0.19941750242513345,0.04755340442445499,0.05062136600022615,0.04601942363656919,0.10448113588598885,0.12046726100347438,-0.04584898132680425,0.05655275838005054,,,,,,
24.276829821999996,0.0,0.0,-0.46142142099600086,-0.18544123302439752,-0.7374016089676042,-0.0652780570144936,-0.05201845168342459,-0.9965103391118788,1.0,1.0,0.07671776931843206,0.07671776931843206,-0.0,-0.0,0.15343553863686413,-0.0,-0.6904599238658886,0.15343553863686413,0.6137421545474565,-0.0,0.0,0.6904599238658886,0.0,0.8438954625027527,-0.1258435845375061,-0.14532043039798737,0.3082839846611023,0.09638217091560364,0.543890118598938,-0.22999736666679382,-0.06157754734158516,0.17889851331710815,0.2338077425956726,0.12667447328567505,0.004625263158231974,0.8526007533073425,-0.40023311972618103,-0.004637181758880615,-0.02901743515394628,0.08584294095635414,0.08544857613742352,-0.015174366533756256,0.08012199401855469,-0.2653680518269539,-0.15728965122252703,0.04472462832927704,0.05845193564891815,0.03585740830749273,0.12332936434540898,0.22484389413148165,-0.13932818919420242,-0.05700983107089996,-0.02901743515394628,0.08584294095635414,0.08544857613742352,-0.015174366533756256,0.08012199401855469,-0.2653680518269539,-0.15728965122252703,0.04472462832927704,0.05845193564891815,0.03585740830749273,0.12332936434540898,0.22484389413148165,-0.13932818919420242,-0.05700983107089996,-0.023009711818284817,0.07226753934039011,0.026077673394055978,-0.08436894333371026,-0.009203884727313927,-0.29145634969827183,-0.21015536794033274,0.04755340442445499,0.06289321230331124,0.04755340442445499,0.10754909746176002,0.13273910730655947,-0.04584898132680425,0.07342654704679259,,,,,,
24.297874968000002,0.0,0.0,-0.4166973589136462,-0.2716168648416175,-0.8803004414746399,-0.06936287877180629,-0.044881862734698186,-0.9965813611772756,1.0,1.0,-0.07671776931843206,0.15343553863686413,-0.0,-0.0,0.6137421545474565,-0.0,-0.5370243852290244,-0.07671776931843206,0.6137421545474565,0.15343553863686413,0.15343553863686413,0.5370243852290244,0.0,0.6904599238658886,-0.14482444524765015,-0.13177740573883057,0.31089431047439575,0.09734620153903961,0.5834195613861084,-0.22199887037277222,-0.0712813138961792,0.1914326250553131,0.2702263593673706,0.1196766346693039,0.00867564044892788,0.8392520546913147,-0.37721750140190125,-0.025557756423950195,-0.03376265033148229,0.08922869712114334,0.08610115759074688,-0.014933358877897263,0.09000435471534729,-0.2633684277534485,-0.15971559286117554,0.04785815626382828,0.06755658984184265,0.034107948653399944,0.12434195866808295,0.2215067194774747,-0.13357428461313248,-0.06223997473716736,-0.03376265033148229,0.08922869712114334,0.08610115759074688,-0.014933358877897263,0.09000435471534729,-0.2633684277534485,-0.15971559286117554,0.04785815626382828,0.06755658984184265,0.034107948653399944,0.12434195866808295,0.2215067194774747,-0.13357428461313248,-0.06223997473716736,-0.024543692606170175,0.07533550091616127,0.026077673394055978,-0.08436894333371026,0.003067961575771161,-0.29145634969827183,-0.2162912910918755,0.04448544284868339,0.07669903939428213,0.04908738521234035,0.11061705903753118,0.14347697282175875,-0.04584898132680425,0.08723237413776348,right_knee,13,7.1,31,53,1
24.317071061999997,0.0,0.0,-0.3239767424014474,-0.29670597283903605,-0.8006697943523987,-0.07445484042855036,-0.03875731419568375,-0.996470946557448,1.0,1.0,-0.07671776931843206,0.30687107727372825,-0.0,-0.0,0.7671776931843206,-0.0,-0.2301533079552962,-0.15343553863686413,0.7671776931843206,-0.0,0.15343553863686413,0.5370243852290244,-0.15343553863686413,0.6137421545474565,-0.14599348604679108,-0.08525693416595459,0.3028217554092407,0.10794444382190704,0.6258189082145691,-0.1933193802833557,-0.0817633792757988,0.16689296066761017,0.2748149335384369,0.11739741265773773,-0.005359236616641283,0.80580735206604,-0.3447764813899994,-0.02270287275314331,-0.034054910531267524,0.10085881501436234,0.08408301882445812,-0.012283798307180405,0.10060419142246246,-0.25619855523109436,-0.16233610920608044,0.04172324016690254,0.06870373338460922,0.033538143150508404,0.12083323940169066,0.21314554382115602,-0.125464029610157,-0.06152625381946564,-0.034054910531267524,0.10085881501436234,0.08408301882445812,-0.012283798307180405,0.10060419142246246,-0.25619855523109436,-0.16233610920608044,0.04172324016690254,0.06870373338460922,0.033538143150508404,0.12083323940169066,0.21314554382115602,-0.125464029610157,-0.06152625381946564,-0.026077673394055978,0.08147142406770404,0.026077673394055978,-0.08283496254582445,0.01687378866674205,-0.29145634969827183,-0.21782527187976086,0.04141748127291223,0.08897088569736722,0.04755340442445499,0.11368502061330234,0.15421483833695848,-0.05045092369046121,0.09950422044084857,,,,,,
24.337038304000004,0.0,0.0,-0.2585268954516601,-0.40251655874119224,-0.8366672101747817,-0.08063017123636854,-0.034701592684006716,-0.9961398370467809,1.0,1.0,-0.07671776931843206,0.30687107727372825,0.07671776931843206,0.15343553863686413,0.2301533079552962,-0.0,-0.0,-0.07671776931843206,0.3835888465921603,-0.2301533079552962,0.2301533079552962,0.5370243852290244,-0.5370243852290244,0.4603066159105924,-0.16375555098056793,-0.06227416172623634,0.33488839864730835,0.1325056403875351,0.69656902551651,-0.1842869520187378,-0.10150222480297089,0.1592322587966919,0.2606898546218872,0.12575379014015198,-0.02480185031890869,0.7479593753814697,-0.33211609721183777,-0.0556330680847168,-0.03849542676471174,0.1066045081242919,0.09209967963397503,-0.006143499165773392,0.11829172074794769,-0.2539404481649399,-0.16727082058787346,0.039808064699172974,0.0651724636554718,0.035627237521111965,0.11597258597612381,0.19868354965001345,-0.12229893356561661,-0.06975880265235901,-0.03849542676471174,0.1066045081242919,0.09209967963397503,-0.006143499165773392,0.11829172074794769,-0.2539404481649399,-0.16727082058787346,0.039808064699172974,0.0651724636554718,0.035627237521111965,0.11597258597612381,0.19868354965001345,-0.12229893356561661,-0.06975880265235901,-0.027611654181941336,0.0876073472192468,0.02914563496982714,-0.07976700097005329,0.024543692606170175,-0.29145634969827183,-0.2162912910918755,0.03988350048502687,0.09510680884890954,0.04295146206079803,0.1182869629769593,0.16802066542792893,-0.061188789205660496,0.1087081051681625,,,,,,
24.357242576000004,0.0,0.0,-0.22362031041177347,-0.32179508083645453,-1.1442814908387824,-0.08772788540691195,-0.03264293410489747,-0.995609490199373,1.0,0.0,0.0,-0.0,0.30687107727372825,0.15343553863686413,0.5370243852290244,0.15343553863686413,0.15343553863686413,-0.07671776931843206,0.2301533079552962,-0.30687107727372825,0.2301533079552962,0.8438954625027527,-0.6137421545474565,0.5370243852290244,-0.17732901871204376,-0.04942058399319649,0.3704760670661926,0.13356545567512512,0.7567031383514404,-0.11110072582960129,-0.12460304796695709,0.14606386423110962,0.21678867936134338,0.1094222366809845,-0.050917405635118484,0.6409420371055603,-0.3461722433567047,-0.033640533685684204,-0.041888793697580695,0.10981790255755186,0.1009965967386961,-0.005878545343875885,0.1333252489566803,-0.23564389161765575,-0.17304602637887,0.036515966057777405,0.054197169840335846,0.031544349156320095,0.10944369714707136,0.1719292150810361,-0.12581297010183334,-0.06426066905260086,-0.041888793697580695,0.10981790255755186,0.1009965967386961,-0.005878545343875885,0.1333252489566803,-0.23564389161765575,-0.17304602637887,0.036515966057777405,0.054197169840335846,0.031544349156320095,0.10944369714707136,0.1719292150810361,-0.12581297010183334,-0.06426066905260086,-0.02914563496982714,0.0876073472192468,0.03681553890925526,-0.07823302018216749,0.035281558121369905,-0.28838838812250067,-0.20862138715244738,0.04141748127291223,0.09817477042468115,0.03681553890925526,0.12288890534061626,0.18489445409467098,-0.07499461629663139,0.11791198989547642,,,,,,
24.377329731000003,0.0,0.0,-0.08072147790473774,-0.10035643198967395,-1.718058482431918,-0.0897487855308586,-0.03365579457407198,-0.9953956213422499,1.0,0.0,-0.15343553863686413,-0.0,0.2301533079552962,0.30687107727372825,0.4603066159105924,0.30687107727372825,0.3835888465921603,0.15343553863686413,0.07671776931843206,-0.15343553863686413,0.0,0.8438954625027527,-0.6137421545474565,0.2301533079552962,-0.21256768703460693,-0.02316313609480858,0.4087344706058502,0.13206860423088074,0.8030309677124023,-0.042796507477760315,-0.1310347616672516,0.11167513579130173,0.12813277542591095,0.10566169768571854,-0.12791283428668976,0.49893808364868164,-0.3546566665172577,0.005921900272369385,-0.05069846077822149,0.11638226453214884,0.1105611976236105,-0.006252758204936981,0.14490720629692078,-0.2185678370296955,-0.17465395480394363,0.027918783947825432,0.03203319385647774,0.030604214407503605,0.09019483998417854,0.13642822671681643,-0.1279340758919716,-0.05437006056308746,-0.05069846077822149,0.11638226453214884,0.1105611976236105,-0.006252758204936981,0.14490720629692078,-0.2185678370296955,-0.17465395480394363,0.027918783947825432,0.03203319385647774,0.030604214407503605,0.09019483998417854,0.13642822671681643,-0.1279340758919716,-0.05437006056308746,-0.0337475773334841,0.0876073472192468,0.038349519697141066,-0.07056311624273937,0.04448544284868339,-0.2822524649709579,-0.1963495408493623,0.04601942363656919,0.09817477042468115,0.035281558121369905,0.12442288612850207,0.20330222354929883,-0.08573248181183067,0.12404791304701875,,,,,,
24.399096578000012,0.0,0.0,0.21162117180431245,-0.05999569303730508,-2.3452861823673805,-0.08880718647115235,-0.03981011807327519,-0.9952529518318798,1.0,0.0,-0.15343553863686413,0.15343553863686413,0.30687107727372825,0.30687107727372825,0.3835888465921603,0.2301533079552962,0.6137421545474565,0.2301533079552962,0.0,-0.0,-0.3835888465921603,0.9206132318211848,-0.6904599238658886,0.07671776931843206,-0.24308808147907257,-0.02159104123711586,0.4433218538761139,0.07689544558525085,0.815820574760437,0.05040256679058075,-0.17089521884918213,0.15688727796077728,0.07644370198249817,0.13056595623493195,-0.16762664914131165,0.21420052647590637,-0.28756436705589294,0.08675529062747955,-0.0583285593893379,0.11677528824657202,0.11920804344117641,-0.020046047866344452,0.14810460805892944,-0.19526806846261024,-0.18461906909942627,0.03922181949019432,0.019110925495624542,0.03683027904480696,0.08026638627052307,0.06524383742362261,-0.1111610010266304,-0.03416171297430992,-0.0583285593893379,0.11677528824657202,0.11920804344117641,-0.020046047866344452,0.14810460805892944,-0.19526806846261024,-0.18461906909942627,0.03922181949019432,0.019110925495624542,0.03683027904480696,0.08026638627052307,0.06524383742362261,-0.1111610010266304,-0.03416171297430992,-0.03681553890925526,0.09067530879501796,0.04755340442445499,-0.06289321230331124,0.052155346788111956,-0.27765052260730094,-0.18561167533416256,0.04908738521234035,0.09817477042468115,0.03681553890925526,0.11675298218907394,0.22017601221604088,-0.10107228969068736,0.12251393225913339,left_ankle,24,6.9,31,301,35
24.417544840000005,0.0,0.0,0.24652775684419906,-0.30543261909900765,-2.1696624263854507,-0.09180667589171701,-0.0489635604755824,-0.9945723221602676,1.0,0.0,-0.2301533079552962,0.07671776931843206,0.4603066159105924,0.30687107727372825,0.3835888465921603,0.2301533079552962,0.5370243852290244,0.07671776931843206,0.0,-0.0,-0.3835888465921603,0.6137421545474565,-0.6137421545474565,-0.2301533079552962,-0.31511250138282776,-0.04575343802571297,0.5054402947425842,-0.012325569987297058,0.8973308205604553,0.07153376936912537,-0.3357810378074646,0.2638317048549652,0.13684241473674774,0.16434405744075775,-0.1309691220521927,0.1560783088207245,-0.15726953744888306,0.1877570003271103,-0.0763346643652767,0.11073468904942274,0.134737653657794,-0.04235130175948143,0.16848216950893402,-0.1899852678179741,-0.2258405238389969,0.0659579262137413,0.034210603684186935,0.04527480434626341,0.08943076804280281,0.05071328300982714,-0.07858729362487793,-0.008911285549402237,-0.0763346643652767,0.11073468904942274,0.134737653657794,-0.04235130175948143,0.16848216950893402,-0.1899852678179741,-0.2258405238389969,0.0659579262137413,0.034210603684186935,0.04527480434626341,0.08943076804280281,0.05071328300982714,-0.07858729362487793,-0.008911285549402237,-0.04141748127291223,0.09220928958290332,0.05522330836388312,-0.05829126993965428,0.05982525072754008,-0.273048580243644,-0.17794177139473444,0.04755340442445499,0.09817477042468115,0.0322135965455983,0.10754909746176002,0.22631193536758365,-0.11181015520588665,0.11791198989547642,,,,,,
24.43756664,0.0,0.0,-0.14508049407202864,-0.4636030825609938,-1.32972272386318,-0.09897006008982064,-0.05101549489166013,-0.9937818404895393,1.0,0.0,-0.15343553863686413,0.07671776931843206,0.3835888465921603,0.2301533079552962,0.3835888465921603,0.15343553863686413,0.3835888465921603,-0.15343553863686413,-0.07671776931843206,-0.15343553863686413,-0.3835888465921603,0.15343553863686413,-0.4603066159105924,-0.5370243852290244,-0.38849976658821106,-0.10780990123748779,0.562410295009613,-0.01078025996685028,1.0704320669174194,0.09305144101381302,-0.49332791566848755,0.21366773545742035,0.03793400153517723,0.1990821808576584,-0.281598299741745,0.13317400217056274,-0.12440645694732666,0.20804499089717865,-0.09468148066662252,0.09522057324647903,0.1489801537245512,-0.041964974254369736,0.21175748109817505,-0.18460584990680218,-0.2652272433042526,0.05341693386435509,0.009483500383794308,0.05395933520048857,0.051773473620414734,0.0449872063472867,-0.07037152349948883,-0.003839287906885147,-0.09468148066662252,0.09522057324647903,0.1489801537245512,-0.041964974254369736,0.21175748109817505,-0.18460584990680218,-0.2652272433042526,0.05341693386435509,0.009483500383794308,0.05395933520048857,0.051773473620414734,0.0449872063472867,-0.07037152349948883,-0.003839287906885147,-0.04295146206079803,0.09374327037078913,0.06289321230331124,-0.05522330836388312,0.0674951546669682,-0.2699806186678728,-0.17333982903107747,0.03681553890925526,0.09510680884890954,0.0322135965455983,0.09987919352233189,0.22477795457969785,-0.11948005914531477,0.10564014359239134,,,,,,
24.457859250000013,0.0,0.0,-0.2977968036215325,-0.30870511144649704,-0.6610434541928523,-0.10504731103018686,-0.046914333081442675,-0.9933600091592427,1.0,0.0,-0.15343553863686413,-0.0,0.3835888465921603,0.07671776931843206,0.4603066159105924,0.2301533079552962,0.15343553863686413,-0.5370243852290244,-0.2301533079552962,-0.0,-0.30687107727372825,-0.2301533079552962,-0.30687107727372825,-0.8438954625027527,-0.5314492583274841,-0.19481857120990753,0.6659427285194397,-0.021025419235229492,1.1060538291931152,0.12550762295722961,-0.6052977442741394,0.18891741335391998,-0.020478973165154457,0.2461637258529663,-0.37175413966178894,0.022236526012420654,-0.18533506989479065,0.3336915671825409,-0.1304188536014408,0.0734684057533741,0.17486326210200787,-0.04452626407146454,0.220662921667099,-0.17649180442094803,-0.2932197004556656,0.047229353338479996,-0.005119743291288614,0.06572972144931555,0.029234513640403748,0.01725283730775118,-0.08560367673635483,0.027572356164455414,-0.1304188536014408,0.0734684057533741,0.17486326210200787,-0.04452626407146454,0.220662921667099,-0.17649180442094803,-0.2932197004556656,0.047229353338479996,-0.005119743291288614,0.06572972144931555,0.029234513640403748,0.01725283730775118,-0.08560367673635483,0.027572356164455414,-0.04755340442445499,0.09374327037078913,0.07209709703062517,-0.052155346788111956,0.07669903939428213,-0.2638446955163305,-0.17333982903107747,0.03067961575771294,0.08897088569736722,0.0322135965455983,0.09374327037078913,0.21250610827661276,-0.12714996308474336,0.08723237413776348,,,,,,
24.477749525000007,0.0,0.0,-0.4428772976935611,-0.20616701789183017,-0.7035858547102141,-0.10810070116404896,-0.040792717420395835,-0.9933026691866385,1.0,0.0,-0.2301533079552962,-0.0,0.4603066159105924,0.07671776931843206,0.5370243852290244,0.3835888465921603,0.07671776931843206,-0.30687107727372825,-0.30687107727372825,-0.0,-0.3835888465921603,-0.6904599238658886,-0.15343553863686413,-0.9973310011396168,-0.7134386897087097,-0.3185619115829468,0.867888867855072,-0.0813964456319809,1.0821852684020996,0.11857154220342636,-0.7069600820541382,0.17561456561088562,-0.039032675325870514,0.26896968483924866,-0.42556434869766235,-0.13672032952308655,-0.2362435758113861,0.5292103886604309,-0.17591621144674718,0.04253257066011429,0.22534979693591595,-0.05961902067065239,0.2146957814693451,-0.17822582460939884,-0.3186352849006653,0.043903641402721405,-0.009758168831467628,0.07143121119588614,0.015781961381435394,-0.022486376576125622,-0.09833080321550369,0.07645206153392792,-0.17591621144674718,0.04253257066011429,0.22534979693591595,-0.05961902067065239,0.2146957814693451,-0.17822582460939884,-0.3186352849006653,0.043903641402721405,-0.009758168831467628,0.07143121119588614,0.015781961381435394,-0.022486376576125622,-0.09833080321550369,0.07645206153392792,-0.053689327575997314,0.09374327037078913,0.0813009817579391,-0.052155346788111956,0.08897088569736722,-0.25617479157690193,-0.17180584824319167,0.027611654181941336,0.07976700097005329,0.035281558121369905,0.0876073472192468,0.1971663003977565,-0.12868394387262871,0.06729062389525027,,,,,,
24.498814764000002,0.0,0.0,-0.6010477611555473,-0.27598018797160334,-1.1311915214488248,-0.1122768764050105,-0.03266236404509396,-0.9931400067461382,1.0,0.0,-0.30687107727372825,-0.0,0.6904599238658886,-0.0,0.7671776931843206,0.4603066159105924,-0.15343553863686413,-0.07671776931843206,-0.5370243852290244,0.3835888465921603,-0.3835888465921603,-0.9206132318211848,0.0,-0.9973310011396168,-0.9806944131851196,-0.44325074553489685,1.1269657611846924,-0.1811217963695526,1.118513584136963,0.03880998492240906,-0.8371255993843079,0.19932374358177185,-0.06809084117412567,0.27714619040489197,-0.4894779622554779,-0.31690502166748047,-0.2579602301120758,0.7701056599617004,-0.24273014231584966,0.01136036217212677,0.29011902026832104,-0.08455035835504532,0.2237778604030609,-0.19816621392965317,-0.3511766642332077,0.04983093589544296,-0.017022710293531418,0.07347533758729696,-0.00019644200801849365,-0.0675325496122241,-0.10375996679067612,0.1366758793592453,-0.24273014231584966,0.01136036217212677,0.29011902026832104,-0.08455035835504532,0.2237778604030609,-0.19816621392965317,-0.3490658503988659,0.04983093589544296,-0.017022710293531418,0.07347533758729696,-0.00019644200801849365,-0.0675325496122241,-0.10375996679067612,0.1366758793592453,-0.06289321230331124,0.09374327037078913,0.09664078963679534,-0.052155346788111956,0.10431069357622347,-0.24697090684958845,-0.17487380981896328,0.027611654181941336,0.0674951546669682,0.04141748127291223,0.07840346249193288,0.1756905693673575,-0.12868394387262871,0.047348873652736614,right_ankle,14,6.8,31,166,0
24.517945413999996,0.0,0.0,-0.7690357016600015,-0.20289452554434081,-1.08646745936647,-0.11634318860240697,-0.02041108571972052,-0.9929993202644033,1.0,0.0,-0.5370243852290244,-0.07671776931843206,0.7671776931843206,-0.0,0.8438954625027527,0.6137421545474565,-0.3835888465921603,0.0,-0.6137421545474565,0.3835888465921603,-0.4603066159105924,-1.150766539776481,0.0,-0.9206132318211848,-1.3158338069915771,-0.5366538763046265,1.3194466829299927,-0.322534441947937,1.1394281387329102,-0.08741539716720581,-0.9396939873695374,0.2004767805337906,-0.08684873580932617,0.2450042963027954,-0.5139279365539551,-0.4253719747066498,-0.29119673371315,1.0305349826812744,-0.32651499076746404,-0.011990420520305634,0.3382392507046461,-0.11990351974964142,0.22900649905204773,-0.22972255945205688,-0.3768187612295151,0.05011919513344765,-0.021712183952331543,0.06543986406177282,-0.006308935582637787,-0.09464928787201643,-0.11206909269094467,0.2017832100391388,-0.32651499076746404,-0.011990420520305634,0.3382392507046461,-0.11990351974964142,0.22900649905204773,-0.22972255945205688,-0.3490658503988659,0.05011919513344765,-0.021712183952331543,0.06543986406177282,-0.006308935582637787,-0.09464928787201643,-0.11206909269094467,0.2017832100391388,-0.07516505860639633,0.09220928958290332,0.1135145783035374,-0.052155346788111956,0.12118448224296552,-0.2346990605465029,-0.1810097329705056,0.03067961575771294,0.05675728915176892,0.05062136600022615,0.06919957776461895,0.15268085754907268,-0.12868394387262871,0.027407123410223402,,,,,,
24.537940856999995,0.0,0.0,-0.8999353955595761,-0.04145156973486533,-0.7766715171374766,-0.11737199482242563,-0.006123756251604815,-0.9930691388019143,1.0,0.0,-0.7671776931843206,-0.2301533079552962,0.9973310011396168,0.07671776931843206,1.0740487704580488,0.7671776931843206,-0.3835888465921603,0.2301533079552962,-0.5370243852290244,0.4603066159105924,-0.4603066159105924,-1.150766539776481,0.0,-0.8438954625027527,-1.4919151067733765,-0.5913258194923401,1.4225882291793823,-0.4076468050479889,1.0251445770263672,-0.15366670489311218,-0.9130544662475586,0.20911064743995667,-0.07663147896528244,0.2296237349510193,-0.5066415667533875,-0.4521597921848297,-0.3385513722896576,1.2072478532791138,-0.37053531571291387,-0.02565840631723404,0.3640246372669935,-0.1411816105246544,0.200435608625412,-0.24628538638353348,-0.3701588809490204,0.052277661859989166,-0.01915786974132061,0.06159472372382879,-0.00448734313249588,-0.10134624224156141,-0.12390775233507156,0.24596142768859863,-0.3490658503988659,-0.02565840631723404,0.3490658503988659,-0.1411816105246544,0.200435608625412,-0.24628538638353348,-0.3490658503988659,0.052277661859989166,-0.01915786974132061,0.06159472372382879,-0.00448734313249588,-0.10134624224156141,-0.12390775233507156,0.24596142768859863,-0.09203884727313838,0.0876073472192468,0.1349903093339364,-0.05062136600022615,0.14112623248547917,-0.21935925266764666,-0.19021361769781953,0.035281558121369905,0.04601942363656919,0.05982525072754008,0.05999569303730502,0.1281371649429025,-0.12868394387262871,0.012067315531367154,,,,,,
24.557968969,0.0,0.0,-1.0057459814617324,0.030543261909900768,-0.657770961845363,-0.11736808257745682,0.01020592022412668,-0.9930360378075259,1.0,0.0,-0.8438954625027527,-0.4603066159105924,1.227484309094913,-0.0,0.9973310011396168,0.7671776931843206,-0.5370243852290244,0.2301533079552962,-0.4603066159105924,0.3835888465921603,-0.7671776931843206,-1.3809198477317772,0.3835888465921603,-0.6137421545474565,-1.576767921447754,-0.6224113702774048,1.486465573310852,-0.43739524483680725,0.9097269177436829,-0.20373257994651794,-0.8392147421836853,0.23000149428844452,-0.0999896377325058,0.2583361268043518,-0.5596476197242737,-0.45614415407180786,-0.3818971812725067,1.3745510578155518,-0.39174851938150823,-0.033429794013500214,0.37999397329986095,-0.14861872047185898,0.1715811938047409,-0.2588018551468849,-0.35169894993305206,0.05750037357211113,-0.02499740943312645,0.06877282168716192,-0.017738856375217438,-0.10234233271330595,-0.13474420458078384,0.28778722882270813,-0.3490658503988659,-0.033429794013500214,0.3490658503988659,-0.14861872047185898,0.1715811938047409,-0.2588018551468849,-0.3490658503988659,0.05750037357211113,-0.02499740943312645,0.06877282168716192,-0.017738856375217438,-0.10234233271330595,-0.13474420458078384,0.28778722882270813,-0.1135145783035374,0.07840346249193288,0.1610679827279924,-0.05062136600022615,0.16260196351587775,-0.20401944478879042,-0.19941750242513345,0.04141748127291223,0.03681553890925526,0.0674951546669682,0.044655885158448774,0.09899152997307537,-0.11948005914531477,-0.000204530771717934,,,,,,
24.578192164,0.0,0.0,-1.076649982324002,0.07090400086226964,-0.6719517620178169,-0.11530978446925554,0.029592776545207165,-0.9928886751202268,1.0,0.0,-1.150766539776481,-0.3835888465921603,1.3809198477317772,-0.0,0.9973310011396168,0.7671776931843206,-0.7671776931843206,0.30687107727372825,-0.4603066159105924,0.4603066159105924,-0.6904599238658886,-1.3809198477317772,0.3835888465921603,-0.5370243852290244,-1.582066297531128,-0.6914944648742676,1.5717391967773438,-0.4829290807247162,0.6715879440307617,-0.28029873967170715,-0.7081962823867798,0.3177565336227417,-0.07785248756408691,0.28847384452819824,-0.5832076072692871,-0.4310902953147888,-0.3921222388744354,1.5288264751434326,-0.39307311340235174,-0.05070056766271591,0.4013123791664839,-0.1600021794438362,0.11204645037651062,-0.2779433950781822,-0.3189443349838257,0.07943913340568542,-0.01946312189102173,0.07630725111812353,-0.023628853261470795,-0.09607886802405119,-0.13730046898126602,0.32635608315467834,-0.3490658503988659,-0.05070056766271591,0.3490658503988659,-0.1600021794438362,0.11204645037651062,-0.2779433950781822,-0.3189443349838257,0.07943913340568542,-0.01946312189102173,0.07630725111812353,-0.023628853261470795,-0.09607886802405119,-0.13730046898126602,0.32635608315467834,-0.13805827090970757,0.06919957776461895,0.19174759848570533,-0.053689327575997314,0.1825437137583914,-0.18867963690993372,-0.2162912910918755,0.05062136600022615,0.02914563496982714,0.07669903939428213,0.030850058067477884,0.06984589500324823,-0.11027617441800129,-0.0063404539232607,,,,,,
24.599272973000012,0.0,0.0,-1.2675453692608818,0.3294308963139297,-0.6141377305455047,-0.11017580710947043,0.05100731810623631,-0.9926024103473586,1.0,1.0,-1.227484309094913,-0.7671776931843206,1.7645086943239374,-0.3835888465921603,0.6904599238658886,0.6137421545474565,-1.0740487704580488,0.3835888465921603,-0.4603066159105924,0.2301533079552962,-0.7671776931843206,-1.4576376170502092,0.4603066159105924,-0.07671776931843206,-1.5465161800384521,-0.7141706347465515,1.5052392482757568,-0.4621770679950714,0.41795510053634644,-0.3195233941078186,-0.5759991407394409,0.3679794669151306,-0.07682863622903824,0.3106439411640167,-0.5581429600715637,-0.3888731002807617,-0.4193110764026642,1.6653656959533691,-0.3841855840291828,-0.056369610130786896,0.38468739204108715,-0.15481417626142502,0.0486382395029068,-0.2877495586872101,-0.28589504957199097,0.09199486672878265,-0.01920715905725956,0.08184977527707815,-0.017362691462039948,-0.08552456926554441,-0.1440976783633232,0.3604908883571625,-0.3490658503988659,-0.056369610130786896,0.3490658503988659,-0.15481417626142502,0.0486382395029068,-0.2877495586872101,-0.28589504957199097,0.09199486672878265,-0.01920715905725956,0.08184977527707815,-0.017362691462039948,-0.08552456926554441,-0.1440976783633232,0.3604908883571625,-0.16566992509164935,0.0538597698857627,0.22549517581918943,-0.06289321230331124,0.1963495408493623,-0.17640779060684864,-0.23623304133438872,0.05522330836388312,0.021475731030399015,0.07823302018216749,0.015510250188621635,0.04070026003342109,-0.09800432811491576,-0.0063404539232607,left_hip_pitch,22,7.4,31,211,0
24.618232886000015,0.0,0.0,-1.4660765716752369,0.5214171140333059,-0.3817907738737596,-0.10203231752867083,0.07754456132178983,-0.9917541263786805,1.0,1.0,-1.3809198477317772,-0.8438954625027527,1.5343553863686412,-0.6137421545474565,0.6904599238658886,0.07671776931843206,-0.9206132318211848,0.2301533079552962,-0.30687107727372825,-0.0,-0.6137421545474565,-1.227484309094913,0.5370243852290244,0.3835888465921603,-1.4148015975952148,-0.7125903964042664,1.3308117389678955,-0.426948219537735,0.11307593435049057,-0.37971949577331543,-0.4437197148799896,0.4895731806755066,0.025550000369548798,0.297128289937973,-0.47405514121055603,-0.2943838834762573,-0.41445937752723694,1.8190441131591797,-0.35125693841837347,-0.05597455054521561,0.3410805147141218,-0.1460069641470909,-0.027581552043557167,-0.3027985841035843,-0.25282519310712814,0.12239329516887665,0.006387500092387199,0.07847086247056723,0.003659263253211975,-0.061902265064418316,-0.1428847536444664,0.3989104926586151,-0.3490658503988659,-0.05597455054521561,0.3410805147141218,-0.1460069641470909,-0.027581552043557167,-0.3027985841035843,-0.25282519310712814,0.12239329516887665,0.006387500092387199,0.07847086247056723,0.003659263253211975,-0.061902265064418316,-0.1428847536444664,0.3989104926586151,-0.1963495408493623,0.03698598121902065,0.25617479157690193,-0.07363107781851097,0.21015536794033274,-0.17640779060684864,-0.25617479157690193,0.05982525072754008,0.012271846303085088,0.07823302018216749,0.0032384038855365477,0.02075850979090743,-0.09340238575125924,0.002863430804053227,,,,,,
24.63834929800001,0.0,0.0,-1.5795229730548683,0.37088246604879505,-0.33815754257390135,-0.09387808864115574,0.10714347073175383,-0.9898015867600116,1.0,1.0,-1.6110731556870734,-0.6904599238658886,1.3809198477317772,-0.6137421545474565,0.4603066159105924,0.2301533079552962,-0.7671776931843206,0.2301533079552962,-0.4603066159105924,-0.0,-0.30687107727372825,-0.9973310011396168,0.07671776931843206,0.4603066159105924,-1.2527443170547485,-0.5985179543495178,1.1202127933502197,-0.41793015599250793,0.014775969088077545,-0.39156031608581543,-0.4015016555786133,0.550382673740387,0.17631906270980835,0.2701229453086853,-0.3132435977458954,-0.19293932616710663,-0.38067564368247986,1.894809603691101,-0.3107426182832569,-0.027456440031528473,0.2884307783097029,-0.14375244826078415,-0.05215654335916042,-0.3057587891817093,-0.24227067828178406,0.13759566843509674,0.04407976567745209,0.0717195263132453,0.043862149119377136,-0.03654112573713064,-0.13443882018327713,0.41785186529159546,-0.3107426182832569,-0.027456440031528473,0.2884307783097029,-0.14375244826078415,-0.05215654335916042,-0.3057587891817093,-0.24227067828178406,0.13759566843509674,0.04407976567745209,0.0717195263132453,0.043862149119377136,-0.03654112573713064,-0.13443882018327713,0.41785186529159546,-0.2270291566070748,0.02318015412804976,0.28071848418307255,-0.09203884727313838,0.21782527187976086,-0.17180584824319167,-0.2715145994557586,0.06442719309119704,0.0015339807878858025,0.07823302018216749,-0.0028975192660062182,0.005418701912051183,-0.09186840496337344,0.012067315531367154,,,,,,
24.65832087000001,0.0,0.0,-0.4134248665661568,0.33597588100890846,-0.6261368691529657,-0.08877301453800343,0.1204047783389012,-0.9887477136474174,1.0,1.0,-1.4576376170502092,-0.5370243852290244,1.150766539776481,-1.150766539776481,0.07671776931843206,-0.0,-0.3835888465921603,0.30687107727372825,-0.6137421545474565,-0.0,-0.07671776931843206,-0.6904599238658886,0.07671776931843206,0.5370243852290244,-1.0611246824264526,-0.680236279964447,1.3621599674224854,-0.5479422807693481,-0.4403941035270691,-0.34923654794692993,-0.22843128442764282,0.7811286449432373,0.3695431351661682,0.21877820789813995,-0.12430154532194138,0.017587408423423767,-0.12682059407234192,1.6751521825790405,-0.2628377096261829,-0.04788602143526077,0.3489175718277693,-0.1762554794549942,-0.16594906151294708,-0.2951778471469879,-0.19900308549404144,0.19528216123580933,0.09238578379154205,0.05888334196060896,0.09109766222536564,0.016090557910501957,-0.07097505778074265,0.3629375100135803,-0.2628377096261829,-0.04788602143526077,0.3489175718277693,-0.1762554794549942,-0.15695654335916043,-0.2951778471469879,-0.19900308549404144,0.19528216123580933,0.09238578379154205,0.05888334196060896,0.09109766222536564,0.016090557910501957,-0.07097505778074265,0.3629375100135803,-0.25310683000113077,0.01244228861285003,0.3021942152134711,-0.11811652066719436,0.21935925266764666,-0.17180584824319167,-0.27918450339518674,0.06902913545485401,-0.006135923151542766,0.07823302018216749,-0.004431500053892021,-0.005319163603148547,-0.09033442417548763,0.0258731426223376,,,,,,
24.678458782999996,0.0,0.0,-0.39706240482870997,0.3021601267515183,-0.48323803664593,-0.08465748019067139,0.12647623546558134,-0.9883505819850671,1.0,1.0,-1.227484309094913,-0.3835888465921603,0.6904599238658886,-1.150766539776481,-0.07671776931843206,-0.0,-0.15343553863686413,0.15343553863686413,-0.30687107727372825,0.07671776931843206,0.0,-0.4603066159105924,0.0,0.6137421545474565,-0.6524837613105774,-0.3703107237815857,1.1103427410125732,-0.49097350239753723,-0.5205307006835938,-0.18352439999580383,-0.165023535490036,0.7536191940307617,0.4577781558036804,0.1521316021680832,0.0738956555724144,0.09278258681297302,0.05435869097709656,1.3766727447509766,-0.1606774793472141,0.02959536761045456,0.28596326522529125,-0.16201328486204147,-0.18598321080207825,-0.2537498101592064,-0.18315114825963974,0.18840479850769043,0.1144445389509201,0.04222169052809477,0.14064696244895458,0.03488935250788927,-0.025680236518383026,0.28831765055656433,-0.1606774793472141,0.02959536761045456,0.28596326522529125,-0.16201328486204147,-0.18598321080207825,-0.2537498101592064,-0.18315114825963974,0.18840479850769043,0.1144445389509201,0.04222169052809477,0.14064696244895458,0.03488935250788927,-0.025680236518383026,0.28831765055656433,-0.2745825610315298,0.006306365461307709,0.31139809994078504,-0.1349903093339364,0.21782527187976086,-0.17180584824319167,-0.2822524649709579,0.07363107781851097,-0.012271846303085088,0.0813009817579391,-0.004431500053892021,-0.012989067542576671,-0.09033442417548763,0.03814498892542313,,,,,,
24.699539240000007,0.0,0.0,-0.20180369476184434,0.12435470920459599,-0.18435040224190105,-0.08159710438229602,0.1285154394021162,-0.9883449268305603,1.0,1.0,-0.9973310011396168,-0.30687107727372825,0.3835888465921603,-0.6904599238658886,-0.30687107727372825,-0.2301533079552962,-0.2301533079552962,0.3835888465921603,-0.15343553863686413,0.07671776931843206,0.0,-0.30687107727372825,0.0,0.7671776931843206,-0.4080757796764374,-0.264536052942276,0.966328501701355,-0.42862001061439514,-0.4365302324295044,-0.08106546103954315,-0.17315928637981415,0.7559497356414795,0.5468900799751282,0.14471285045146942,0.13130080699920654,0.02441534399986267,0.2790842354297638,1.1713553667068481,-0.0995754839386791,0.05603903532028198,0.2499597053974867,-0.14642491191625595,-0.1649830937385559,-0.22813507542014122,-0.18518508598208427,0.18898743391036987,0.13672251999378204,0.040367002598941326,0.15499825030565262,0.017797541804611683,0.030501149594783783,0.23698830604553223,-0.0995754839386791,0.05603903532028198,0.2499597053974867,-0.14642491191625595,-0.1649830937385559,-0.22813507542014122,-0.18518508598208427,0.18898743391036987,0.13672251999378204,0.040367002598941326,0.15499825030565262,0.017797541804611683,0.0,0.23698830604553223,-0.29299033048615764,-0.0013635384781204157,0.32060198466809897,-0.15033011721279266,0.20862138715244738,-0.1810097329705056,-0.28685440733461487,0.07976700097005329,-0.01380582709097089,0.0813009817579391,-0.004431500053892021,-0.020658971482004795,-0.09033442417548763,0.05501877759216518,right_hip_pitch,12,6.3,31,376,66
24.71867262500001,0.0,0.0,-0.3010692959690218,0.15817046346198613,-0.30543261909900765,-0.07958636763870244,0.13468462215780413,-0.9876872291572302,1.0,1.0,-0.8438954625027527,-0.4603066159105924,0.30687107727372825,-0.6904599238658886,-0.6137421545474565,-0.7671776931843206,-0.5370243852290244,0.5370243852290244,-0.07671776931843206,-0.0,0.07671776931843206,-0.3835888465921603,0.0,0.8438954625027527,-0.38507845997810364,-0.24653774499893188,0.8169932961463928,-0.3648111820220947,-0.40057629346847534,-0.09777666628360748,-0.20960602164268494,0.7943435907363892,0.5641002058982849,0.13069643080234528,0.14108781516551971,-0.051581673324108124,0.4173581600189209,1.1534548997879028,-0.09382615401409566,0.06053861230611801,0.21262590400874615,-0.13047270476818085,-0.15599460899829865,-0.2323128767311573,-0.19429676979780197,0.1985858976840973,0.14102505147457123,0.03686289768666029,0.1574450023472309,-0.0012017125263810158,0.06506963074207306,0.2325131893157959,-0.09382615401409566,0.06053861230611801,0.21262590400874615,-0.13047270476818085,-0.15599460899829865,-0.2323128767311573,-0.19429676979780197,0.1985858976840973,0.14102505147457123,0.03686289768666029,0.1574450023472309,-0.0012017125263810158,0.0,0.2325131893157959,-0.3083301383650139,-0.010567423205434343,0.32673790781964174,-0.16260196351587775,0.1963495408493623,-0.19788352163724765,-0.2975922728498146,0.09203884727313838,-0.01380582709097089,0.0813009817579391,-0.0028975192660062182,-0.03139683699720408,-0.09033442417548763,0.07342654704679259,,,,,,
24.73868162400001,0.0,0.0,-0.42215151282612845,0.09599310885968812,-0.595593607243065,-0.07959942075591907,0.14082974441431836,-0.9868287162945351,1.0,1.0,-0.7671776931843206,-0.4603066159105924,0.2301533079552962,-0.6137421545474565,-0.7671776931843206,-1.150766539776481,-0.6137421545474565,0.6904599238658886,0.0,-0.07671776931843206,0.07671776931843206,-0.6904599238658886,0.0,0.9973310011396168,-0.4235159158706665,-0.22712361812591553,0.6621419191360474,-0.31901878118515015,-0.38670289516448975,-0.1627730429172516,-0.2555995583534241,0.7938588857650757,0.5778587460517883,0.09152691811323166,0.14516861736774445,-0.09411384165287018,0.5275774002075195,1.211111068725586,-0.10343551798723638,0.0653921440243721,0.17391305975615978,-0.1190246045589447,-0.15252625942230225,-0.24856197088956833,-0.20579515397548676,0.19846472144126892,0.14446468651294708,0.027070519514381886,0.1584652028977871,-0.01183475460857153,0.09262444078922272,0.24692723155021667,-0.10343551798723638,0.0653921440243721,0.17391305975615978,-0.1190246045589447,-0.15252625942230225,-0.24856197088956833,-0.20579515397548676,0.19846472144126892,0.14446468651294708,0.027070519514381886,0.1584652028977871,-0.01183475460857153,0.0,0.24692723155021667,-0.3221359654559848,-0.018237327144862467,0.3298058693954129,-0.17333982903107747,0.1794757521826198,-0.22242721424341783,-0.3098641191528997,0.10584467436410927,-0.012271846303085088,0.07669903939428213,0.00017044230976494268,-0.04520266408817497,-0.09033442417548763,0.0933682972893058,,,,,,
24.75867003000002,0.0,0.0,-0.41996985126113556,0.10799224746714914,-0.8584838258247108,-0.07959743129470578,0.14796958381708125,-0.9857835721882793,1.0,1.0,-0.6904599238658886,-0.3835888465921603,0.15343553863686413,-0.3835888465921603,-0.9973310011396168,-1.227484309094913,-0.5370243852290244,0.7671776931843206,0.15343553863686413,-0.2301533079552962,0.4603066159105924,-0.6904599238658886,0.0,1.150766539776481,-0.45728805661201477,-0.22841554880142212,0.6178398728370667,-0.25677427649497986,-0.3825882077217102,-0.22433361411094666,-0.27934005856513977,0.8157359957695007,0.5911310911178589,0.025369595736265182,0.1404002457857132,-0.13424387574195862,0.5908576250076294,1.1982083320617676,-0.11187855317257345,0.06506916135549545,0.1628375481814146,-0.10346347838640213,-0.15149758756160736,-0.2639521136879921,-0.21173027902841568,0.20393399894237518,0.14778277277946472,0.010531188920140266,0.15727311000227928,-0.02186726313084364,0.10844449698925018,0.24370154738426208,-0.11187855317257345,0.06506916135549545,0.1628375481814146,-0.10346347838640213,-0.15149758756160736,-0.2639521136879921,-0.21173027902841568,0.20393399894237518,0.14778277277946472,0.010531188920140266,0.15727311000227928,-0.02186726313084364,0.0,0.24370154738426208,-0.33440781175906986,-0.025907231084291035,0.33287383097118406,-0.1810097329705056,0.15800002115222123,-0.24697090684958845,-0.32060198466809897,0.11965050145508016,-0.004601942363656963,0.07056311624273937,0.007840346249193067,-0.05747451039126006,-0.09033442417548763,0.11944597068336178,,,,,,
24.778708068000014,0.0,0.0,-0.4363323129985824,0.1341721862470641,-0.6926775468852495,-0.07960385613349809,0.15410490097638732,-0.9848425790875084,1.0,1.0,-0.5370243852290244,-0.2301533079552962,0.07671776931843206,-0.30687107727372825,-1.150766539776481,-1.227484309094913,-0.30687107727372825,0.7671776931843206,0.4603066159105924,-0.4603066159105924,0.6137421545474565,-0.6137421545474565,0.0,1.227484309094913,-0.501458466053009,-0.2012828141450882,0.5659434199333191,-0.16286492347717285,-0.29360198974609375,-0.24693259596824646,-0.3036113381385803,0.7884542942047119,0.5821579694747925,-0.019905362278223038,0.1451101452112198,-0.16725441813468933,0.556126594543457,1.1191281080245972,-0.12292115553282201,0.07185234501957893,0.14986343495547771,-0.07998614013195038,-0.12925103306770325,-0.26960185915231705,-0.21779809892177582,0.19711357355117798,0.14553949236869812,-0.0007875505834817886,0.15845058485865593,-0.030119898729026318,0.09976173937320709,0.22393149137496948,-0.12292115553282201,0.07185234501957893,0.14986343495547771,-0.07998614013195038,-0.12925103306770325,-0.26960185915231705,-0.21779809892177582,0.19711357355117798,0.14553949236869812,-0.0007875505834817886,0.15845058485865593,-0.030119898729026318,0.0,0.22393149137496948,-0.3436116964863838,-0.030509173447947555,0.33287383097118406,-0.1825437137583914,0.1349903093339364,-0.2699806186678728,-0.32673790781964174,0.1349903093339364,0.010737865515199285,0.06135923151542544,0.021646173340163957,-0.06974635669434515,-0.09033442417548763,0.14552364407741775,,,,,,
24.79975774600001,0.0,0.0,-0.47778388273344774,0.18435040224190105,-0.4930555136883981,-0.07754004092147741,0.1632421914136367,-0.983534203267161,1.0,1.0,-0.4603066159105924,-0.07671776931843206,-0.0,-0.07671776931843206,-1.304202078413345,-0.9973310011396168,-0.15343553863686413,0.8438954625027527,0.8438954625027527,-0.5370243852290244,0.7671776931843206,-0.4603066159105924,0.0,1.304202078413345,-0.5447310209274292,-0.18072687089443207,0.5566004514694214,-0.03384040296077728,-0.14088468253612518,-0.24901828169822693,-0.32058286666870117,0.7773250937461853,0.5643395781517029,-0.04009810835123062,0.13381703197956085,-0.19341246783733368,0.4446224570274353,0.9579795002937317,-0.13373929425142705,0.07699133083224297,0.1475276928395033,-0.047730010002851486,-0.0910717062652111,-0.27012328058481216,-0.22204098105430603,0.19433127343654633,0.14108489453792572,-0.0058357371017336845,0.1556273065507412,-0.036659411154687405,0.07188570499420166,0.1836443394422531,-0.13373929425142705,0.07699133083224297,0.1475276928395033,-0.047730010002851486,-0.0910717062652111,-0.27012328058481216,-0.22204098105430603,0.19433127343654633,0.14108489453792572,-0.0058357371017336845,0.1556273065507412,-0.036659411154687405,0.0,0.1836443394422531,-0.34821363885004075,-0.03204315423583336,0.33287383097118406,-0.18407769454627676,0.10891263593988043,-0.28992236891038603,-0.3298058693954129,0.15186409800067846,0.0322135965455983,0.04908738521234035,0.03698598121902065,-0.07588227984588791,-0.09033442417548763,0.17006733668358792,left_knee,23,7.6,31,136,11
24.818847758000004,0.0,0.0,-0.5519603759432067,0.3076142806640006,-0.21380283336930536,-0.07242745213973474,0.172397738191763,-0.9823610762051348,1.0,1.0,-0.2301533079552962,-0.0,-0.0,0.07671776931843206,-1.227484309094913,-0.9973310011396168,-0.0,0.7671776931843206,1.0740487704580488,-0.6137421545474565,0.9206132318211848,-0.30687107727372825,0.0,1.227484309094913,-0.6237483024597168,-0.18699540197849274,0.6027030944824219,0.07444271445274353,0.012429453432559967,-0.2050572633743286,-0.3045180141925812,0.7946626543998718,0.512194812297821,-0.04879618063569069,0.09290099143981934,-0.24050261080265045,0.25465258955955505,0.8547646403312683,-0.15349361463449895,0.0754241980612278,0.1590533535927534,-0.020659230649471283,-0.05274317227303982,-0.2591330260038376,-0.21802476793527603,0.19866566359996796,0.12804870307445526,-0.008010255172848701,0.14539829641580582,-0.0484319468960166,0.024393238127231598,0.15784062445163727,-0.15349361463449895,0.0754241980612278,0.1590533535927534,-0.020659230649471283,-0.05274317227303982,-0.2591330260038376,-0.21802476793527603,0.19866566359996796,0.12804870307445526,-0.008010255172848701,0.14539829641580582,-0.0484319468960166,0.0,0.15784062445163727,-0.3497476196379261,-0.03204315423583336,0.33287383097118406,-0.17794177139473444,0.08897088569736722,-0.3098641191528997,-0.3298058693954129,0.1687378866674205,0.05062136600022615,0.03681553890925526,0.05692773146153386,-0.07741626063377327,-0.09033442417548763,0.19307704850187274,,,,,,
24.838955021999993,0.0,0.0,-0.6643159465403417,0.28579766501407144,-0.11780972450961724,-0.06733859558883153,0.18467099699361372,-0.9804907630434407,1.0,1.0,0.0,-0.0,-0.0,0.6904599238658886,-0.8438954625027527,-0.5370243852290244,0.2301533079552962,0.6904599238658886,0.9973310011396168,-0.6904599238658886,1.0740487704580488,0.0,0.0,0.9973310011396168,-0.7312291264533997,-0.23837438225746155,0.7006070017814636,0.05323309451341629,0.08745550364255905,-0.16219744086265564,-0.28250473737716675,0.8251280784606934,0.4772414267063141,-0.033606451004743576,0.05009061098098755,-0.2914125323295593,0.12339260429143906,0.8883572816848755,-0.18036382063291967,0.0625794529914856,0.18352933041751385,-0.025961635634303093,-0.03398665972054005,-0.24841807037591934,-0.21252144873142242,0.20628201961517334,0.11931035667657852,-0.004212822765111923,0.13469570130109787,-0.061159427277743816,-0.008421758189797401,0.16623878479003906,-0.18036382063291967,0.0625794529914856,0.18352933041751385,-0.025961635634303093,-0.03398665972054005,-0.24841807037591934,-0.21252144873142242,0.20628201961517334,0.11931035667657852,-0.004212822765111923,0.13469570130109787,-0.061159427277743816,-0.008421758189797401,0.16623878479003906,-0.34821363885004075,-0.030509173447947555,0.3359417925469552,-0.15953400194010658,0.0674951546669682,-0.31446606151655665,-0.32366994624387013,0.1825437137583914,0.06902913545485401,0.023009711818284817,0.07686948170404707,-0.07741626063377327,-0.08726646259971647,0.208416856380729,,,,,,
24.85919794,0.0,0.0,-0.4188790204786391,0.5094179754258449,0.2530727415391778,-0.05813512464406633,0.19480366328099422,-0.9791178887421697,1.0,0.0,0.07671776931843206,0.3835888465921603,0.07671776931843206,0.8438954625027527,-1.0740487704580488,0.15343553863686413,0.6137421545474565,0.5370243852290244,0.9206132318211848,-0.6137421545474565,0.9973310011396168,-0.07671776931843206,0.2301533079552962,0.6137421545474565,-0.7666759490966797,-0.25595420598983765,0.726320207118988,0.04305762052536011,0.07215768843889236,-0.1253643035888672,-0.25034457445144653,0.8279796242713928,0.43872347474098206,-0.003641843795776367,0.026960182934999466,-0.28824102878570557,0.045543357729911804,0.9619526863098145,-0.18922552629373968,0.05818449705839157,0.18995763175189495,-0.02850550413131714,-0.03781111352145672,-0.23920978605747223,-0.20448140799999237,0.2069949060678482,0.10968086868524551,0.003278329037129879,0.12891309428960085,-0.060366551391780376,-0.027884069830179214,0.1846376359462738,-0.18922552629373968,0.05818449705839157,0.18995763175189495,-0.02850550413131714,-0.03781111352145672,-0.23920978605747223,-0.20448140799999237,0.2069949060678482,0.10968086868524551,0.003278329037129879,0.12891309428960085,-0.060366551391780376,-0.027884069830179214,0.1846376359462738,-0.34514567727426915,-0.021305288720634072,0.3298058693954129,-0.14112623248547917,0.04601942363656919,-0.31139809994078504,-0.31293208072867085,0.1932815792735907,0.08590292412159606,0.012271846303085088,0.09681123194656029,-0.07895024142165907,-0.08113053944817371,0.21915472189592872,,,,,,
24.879173752000014,0.0,0.0,-0.06326818538479445,0.24216443371421323,0.6534076387153771,-0.05001776248026499,0.19802950859533486,-0.9789190656851863,1.0,0.0,0.15343553863686413,0.5370243852290244,-0.5370243852290244,0.9973310011396168,-0.9973310011396168,0.15343553863686413,0.7671776931843206,0.3835888465921603,0.6904599238658886,-0.4603066159105924,0.6137421545474565,0.07671776931843206,0.6904599238658886,0.3835888465921603,-0.7776445150375366,-0.1947612464427948,0.6512580513954163,0.03516677767038345,0.04279830679297447,-0.05054287984967232,-0.21264681220054626,0.7719420790672302,0.4015020430088043,0.016806967556476593,0.07502659410238266,-0.15832212567329407,0.06170149892568588,0.8568611145019531,-0.1919676677789539,0.07348273694515228,0.171192092821002,-0.030478214845061302,-0.04515095893293619,-0.2205044301226735,-0.1950569674372673,0.19298551976680756,0.10037551075220108,0.008390531875193119,0.14092969708144665,-0.0278868256136775,-0.023844534531235695,0.15836474299430847,-0.1919676677789539,0.07348273694515228,0.171192092821002,-0.030478214845061302,-0.04515095893293619,-0.2205044301226735,-0.1950569674372673,0.19298551976680756,0.10037551075220108,0.008390531875193119,0.14092969708144665,-0.0278868256136775,-0.023844534531235695,0.15836474299430847,-0.337475773334841,-0.013635384781205503,0.3175340230923278,-0.11965050145508016,0.026077673394055978,-0.3052621767892427,-0.2960582920619288,0.2009514832130188,0.09664078963679534,-0.0,0.10908307824964582,-0.06667839511857399,-0.06579073156931746,0.22529064504747104,,,,,,
24.900143982999992,0.0,0.0,-0.3174317577064687,-0.07635815477475191,0.26616271092913524,-0.04793196640330111,0.2029459854097217,-0.9780160804418248,1.0,0.0,0.4603066159105924,0.4603066159105924,-0.5370243852290244,1.0740487704580488,-0.9973310011396168,0.5370243852290244,0.9206132318211848,0.30687107727372825,0.3835888465921603,-0.5370243852290244,0.6137421545474565,0.7671776931843206,0.9206132318211848,0.30687107727372825,-0.7703703045845032,-0.13271450996398926,0.657751202583313,-0.01521947979927063,0.05651749670505524,0.0038712769746780396,-0.12454654276371002,0.7627074122428894,0.41404613852500916,0.03624248132109642,0.12754502892494202,-0.04914283752441406,0.09648588299751282,0.7214633822441101,-0.19014911516569555,0.08899442106485367,0.1728153806179762,-0.04307477921247482,-0.041721161454916,-0.20690089091658592,-0.17303190007805824,0.19067685306072235,0.10351153463125229,0.013249410316348076,0.1540593057870865,-0.0005920035764575005,-0.015148438513278961,0.12451530992984772,-0.19014911516569555,0.08899442106485367,0.1728153806179762,-0.04307477921247482,-0.041721161454916,-0.20690089091658592,-0.17303190007805824,0.19067685306072235,0.10351153463125229,0.013249410316348076,0.1540593057870865,-0.0005920035764575005,-0.015148438513278961,0.12451530992984772,-0.32673790781964174,-0.0028975192660062182,0.3067961575771281,-0.0997087512125665,0.004601942363656963,-0.28992236891038603,-0.2761165418194156,0.20708740636456158,0.1012427320004523,-0.006135923151542766,0.1213549245527309,-0.052872568027603095,-0.047382962114689606,0.23449452977478497,right_knee,13,6.9,31,1190,1
24.91965816200002,0.0,0.0,-0.34579335805137656,-0.3076142806640006,-0.2301652951067522,-0.05407366632631293,0.20915286031875752,-0.976386767439273,1.0,0.0,0.6904599238658886,0.30687107727372825,-0.6137421545474565,1.0740487704580488,-1.150766539776481,0.9973310011396168,1.5343553863686412,0.07671776931843206,0.30687107727372825,-0.2301533079552962,0.5370243852290244,0.6137421545474565,0.7671776931843206,0.4603066159105924,-0.7808834314346313,-0.12280970811843872,0.6957301497459412,-0.11200127005577087,0.09604350477457047,0.03578932583332062,-0.06540960818529129,0.740510880947113,0.44102051854133606,0.08034694194793701,0.15584860742092133,0.05299319326877594,0.15783672034740448,0.5281915068626404,-0.1927773968782276,0.0914706215262413,0.18231011740863323,-0.06727022677659988,-0.03183965943753719,-0.19892137870192528,-0.15824766643345356,0.18512772023677826,0.11025512963533401,0.024275525473058224,0.16113520041108131,0.02494200412184,0.00018927082419395447,0.07619734108448029,-0.1927773968782276,0.0914706215262413,0.18231011740863323,-0.06727022677659988,-0.03183965943753719,-0.19892137870192528,-0.15824766643345356,0.18512772023677826,0.11025512963533401,0.024275525473058224,0.16113520041108131,0.02494200412184,0.0,0.07619734108448029,-0.31293208072867085,0.004772384673421906,0.294524311274043,-0.07823302018216749,-0.019941750242513212,-0.2715145994557586,-0.24697090684958845,0.20862138715244738,0.10737865515199507,-0.007669903939428124,0.13209279006793018,-0.04366868330028917,-0.03204315423583336,0.23909647213844193,,,,,,
24.93940452000001,0.0,0.0,0.35779249665883756,-0.2519819107566813,-0.5006913291658733,-0.06124202828995004,0.20516079477133267,-0.9768103512247032,1.0,0.0,0.8438954625027527,0.4603066159105924,-0.5370243852290244,0.9973310011396168,-1.227484309094913,0.8438954625027527,1.0740487704580488,0.0,0.30687107727372825,-0.0,0.4603066159105924,0.3835888465921603,0.7671776931843206,0.15343553863686413,-0.7779275178909302,-0.11331015825271606,0.6122411489486694,-0.1797613799571991,0.02980569377541542,0.07514818012714386,-0.04781736433506012,0.6440896391868591,0.36069387197494507,0.07873096317052841,0.13232217729091644,0.10562697052955627,0.308234304189682,0.35260647535324097,-0.1920384184923023,0.09384550899267197,0.1614378672093153,-0.08421025425195694,-0.048399112187325954,-0.18908166512846947,-0.15384960547089577,0.16102240979671478,0.09017346799373627,0.023871530778706074,0.1552535928785801,0.038100448437035084,0.037788666784763336,0.03230108320713043,-0.1920384184923023,0.09384550899267197,0.1614378672093153,-0.08421025425195694,-0.048399112187325954,-0.18908166512846947,-0.15384960547089577,0.16102240979671478,0.09017346799373627,0.023871530778706074,0.1552535928785801,0.038100448437035084,0.0,0.03230108320713043,-0.2960582920619288,0.01244228861285003,0.2837864457588437,-0.05829126993965428,-0.04448544284868339,-0.25157284921324496,-0.22396119503130363,0.20862138715244738,0.11198059751565159,-0.007669903939428124,0.1412966747952441,-0.035998779360861044,-0.01977130793274827,0.2421644337142131,,,,,,
24.959393389000013,0.0,0.0,0.31306843457648287,-0.284706834231575,-0.5421428989007386,-0.06736953001506077,0.19802558822608768,-0.9778789356731548,1.0,0.0,0.8438954625027527,0.5370243852290244,-0.6137421545474565,0.9973310011396168,-1.150766539776481,1.0740487704580488,1.0740487704580488,0.07671776931843206,0.2301533079552962,0.07671776931843206,0.30687107727372825,0.4603066159105924,0.5370243852290244,0.15343553863686413,-0.7949936389923096,-0.1225166767835617,0.6159266829490662,-0.19125106930732727,0.030907265841960907,0.11247474700212479,-0.04728177189826965,0.6206585168838501,0.31290656328201294,0.07300376147031784,0.1283508986234665,0.10821525752544403,0.39529094099998474,0.29812610149383545,-0.19630494876764715,0.09154387935996056,0.16235925070941448,-0.08708267658948898,-0.04812371917068958,-0.17975002340972424,-0.15371570736169815,0.15516462922096252,0.07822664082050323,0.02243973035365343,0.1542607732117176,0.03874752018600702,0.05955282598733902,0.018680989742279053,-0.19630494876764715,0.09154387935996056,0.16235925070941448,-0.08708267658948898,-0.04812371917068958,-0.17975002340972424,-0.15371570736169815,0.15516462922096252,0.07822664082050323,0.02243973035365343,0.1542607732117176,0.03874752018600702,0.0,0.018680989742279053,-0.27918450339518674,0.02318015412804976,0.2745825610315298,-0.03988350048502687,-0.0674951546669682,-0.2300971181828464,-0.20401944478879042,0.21015536794033274,0.11658253987930856,-0.0015339807878858025,0.14589861715890107,-0.02526091384566176,-0.009033442417548984,0.2436984145020989,,,,,,
24.979741312000016,0.0,0.0,0.10581058590215622,-0.5726861608106394,-0.6763150851478027,-0.07859627003148892,0.19393884812964798,-0.9778600868852777,1.0,0.0,0.8438954625027527,0.6137421545474565,-0.3835888465921603,0.8438954625027527,-0.9973310011396168,0.9973310011396168,0.9973310011396168,-0.2301533079552962,0.2301533079552962,0.3835888465921603,0.15343553863686413,0.5370243852290244,0.30687107727372825,0.0,-0.7759811878204346,-0.13895374536514282,0.6548686623573303,-0.23091083765029907,0.06238293647766113,0.1516922414302826,-0.03846435248851776,0.6158718466758728,0.312063068151474,0.08350618928670883,0.12905170023441315,0.10992960631847382,0.4518103301525116,0.26177698373794556,-0.1915518359746784,0.08743461221456528,0.17209474556148052,-0.09699761867523193,-0.040254801511764526,-0.16994564980268478,-0.15151135250926018,0.1539679616689682,0.0780157670378685,0.02506533730775118,0.15443597361445427,0.03917610738426447,0.07368267327547073,0.00959371030330658,-0.1915518359746784,0.08743461221456528,0.17209474556148052,-0.09699761867523193,-0.040254801511764526,-0.16994564980268478,-0.15151135250926018,0.1539679616689682,0.0780157670378685,0.02506533730775118,0.15443597361445427,0.03917610738426447,0.0,0.00959371030330658,-0.2623107147284447,0.03851996200690601,0.26691265709210166,-0.024543692606170175,-0.08436894333371026,-0.21015536794033274,-0.18407769454627676,0.20555342557667577,0.11965050145508016,0.006135923151542766,0.14896657873467223,-0.01452304833046203,-0.004431500053892021,0.2436984145020989,,,,,,
25.000603369999993,0.0,0.0,-0.06326818538479445,-0.7766715171374766,-0.6686792696703275,-0.09589914750502886,0.19383870240378173,-0.9763349378969427,1.0,0.0,0.7671776931843206,0.8438954625027527,-0.3835888465921603,0.6904599238658886,-0.6904599238658886,0.9206132318211848,0.8438954625027527,-0.30687107727372825,0.2301533079552962,0.3835888465921603,0.0,0.4603066159105924,0.15343553863686413,-0.15343553863686413,-0.7599718570709229,-0.18306349217891693,0.7115702033042908,-0.2624039053916931,0.14488956332206726,0.16254660487174988,-0.0700182244181633,0.6156708598136902,0.3201221823692322,0.10216173529624939,0.11002389341592789,0.08116573095321655,0.5071219205856323,0.24366775155067444,-0.18754950328730047,0.07640717551112175,0.18627013079822063,-0.10487088561058044,-0.019628144800662994,-0.16723205894231796,-0.15939982049167156,0.15391771495342255,0.08003054559230804,0.029729223810136318,0.14967902190983295,0.03198513854295015,0.08751057088375092,0.0050664022564888,-0.18754950328730047,0.07640717551112175,0.18627013079822063,-0.10487088561058044,-0.019628144800662994,-0.16723205894231796,-0.15939982049167156,0.15391771495342255,0.08003054559230804,0.029729223810136318,0.14967902190983295,0.03198513854295015,0.0,0.0050664022564888,-0.24697090684958845,0.0538597698857627,0.25924275315267353,-0.012271846303085088,-0.09817477042468115,-0.1932815792735907,-0.16566992509164935,0.19788352163724765,0.12578642460662248,0.01380582709097089,0.14896657873467223,-0.005319163603148547,-0.0028975192660062182,0.23602851056267077,left_ankle,24,6.8,31,1175,6
25.019610582000013,0.0,0.0,-0.12326387842209953,-0.8399397025222711,-0.5257804371632918,-0.11324013527468581,0.19485464718436926,-0.9742732359218463,1.0,0.0,0.6904599238658886,0.8438954625027527,-0.30687107727372825,0.4603066159105924,-0.4603066159105924,0.8438954625027527,0.6904599238658886,-0.4603066159105924,0.15343553863686413,0.3835888465921603,0.07671776931843206,0.5370243852290244,0.0,-0.3835888465921603,-0.7469547986984253,-0.22018080949783325,0.732417643070221,-0.298506498336792,0.22058957815170288,0.1844431757926941,-0.08883372694253922,0.6181644797325134,0.2979775369167328,0.12543565034866333,0.07731708884239197,0.026321224868297577,0.5552906394004822,0.24059981107711792,-0.18429523869417608,0.06712784618139267,0.19148199073970318,-0.11389653384685516,-0.0007031410932540894,-0.1617579162120819,-0.16410369612276554,0.15454111993312836,0.0744943842291832,0.0355477025732398,0.14150232076644897,0.01827401202172041,0.09955275058746338,0.00429941713809967,-0.18429523869417608,0.06712784618139267,0.19148199073970318,-0.11389653384685516,-0.0007031410932540894,-0.1617579162120819,-0.16410369612276554,0.15454111993312836,0.0744943842291832,0.0355477025732398,0.14150232076644897,0.01827401202172041,0.0,0.00429941713809967,-0.23163109897073175,0.07226753934039011,0.25310683000113077,-0.006135923151542766,-0.10431069357622347,-0.17640779060684864,-0.15186409800067846,0.19021361769781953,0.12732040539450828,0.021475731030399015,0.15050055952255803,0.005418701912051183,-0.0028975192660062182,0.22529064504747104,,,,,,
25.039751902000006,0.0,0.0,-0.10471975511965978,-0.9337511498169663,-0.7570365630525404,-0.13370507563505027,0.19494404157476797,-0.9716582595768539,1.0,0.0,0.5370243852290244,0.9206132318211848,-0.30687107727372825,0.2301533079552962,-0.30687107727372825,0.6904599238658886,0.5370243852290244,-0.4603066159105924,0.07671776931843206,0.3835888465921603,0.0,0.4603066159105924,0.0,-0.5370243852290244,-0.7624545097351074,-0.2707695960998535,0.7755960822105408,-0.3294273018836975,0.3735814690589905,0.18344134092330933,-0.14074453711509705,0.5551827549934387,0.2349187731742859,0.15076889097690582,0.016937391832470894,-0.06729660928249359,0.5896880626678467,0.2302904725074768,-0.1881701664533466,0.054480649530887604,0.20227660052478313,-0.12162673473358154,0.03754483163356781,-0.1620083749294281,-0.177081398665905,0.13879568874835968,0.05872969329357147,0.041881012730300426,0.1264073965139687,-0.005130446515977383,0.1081521064043045,0.001722082495689392,-0.1881701664533466,0.054480649530887604,0.20227660052478313,-0.12162673473358154,0.03754483163356781,-0.1620083749294281,-0.177081398665905,0.13879568874835968,0.05872969329357147,0.041881012730300426,0.1264073965139687,-0.005130446515977383,0.0,0.001722082495689392,-0.22089323345553247,0.09067530879501796,0.2485048876374738,-0.003067961575771161,-0.10737865515199507,-0.16413594430376355,-0.14112623248547917,0.1810097329705056,0.12578642460662248,0.02914563496982714,0.15050055952255803,0.01462258663936511,-0.0028975192660062182,0.2114848179565006,,,,,,
25.059798255999993,0.0,0.0,0.008726646259971648,-0.9850201965942997,-0.8039422866998881,-0.155150108609437,0.19393763576179626,-0.9686674544102349,1.0,0.0,0.4603066159105924,0.5370243852290244,-0.2301533079552962,0.07671776931843206,-0.07671776931843206,0.6137421545474565,0.3835888465921603,-0.5370243852290244,-0.07671776931843206,0.3835888465921603,0.0,0.5370243852290244,0.0,-0.7671776931843206,-0.8279573917388916,-0.3482319712638855,0.7822480201721191,-0.40447160601615906,0.5696713924407959,0.198831707239151,-0.2073000967502594,0.4768780469894409,0.1486092209815979,0.1696905642747879,-0.10573197156190872,-0.19802840054035187,0.6386598348617554,0.2686097025871277,-0.20454588695429265,0.03511505573987961,0.20393958501517773,-0.14038781076669693,0.08656731247901917,-0.15816078335046768,-0.1937202885746956,0.11921951174736023,0.037152305245399475,0.046611431054770947,0.0957400556653738,-0.03781339433044195,0.12039504945278168,0.011301890015602112,-0.20454588695429265,0.03511505573987961,0.20393958501517773,-0.14038781076669693,0.08656731247901917,-0.15816078335046768,-0.1937202885746956,0.11921951174736023,0.037152305245399475,0.046611431054770947,0.0957400556653738,-0.03781339433044195,0.0,0.011301890015602112,-0.21168934872821854,0.09681123194656029,0.24390294527381684,-0.003067961575771161,-0.10891263593988043,-0.15339807878856426,-0.1349903093339364,0.1702718674553063,0.12271846303085132,0.035281558121369905,0.15050055952255803,0.026894432942450197,-0.0028975192660062182,0.19461102928975854,,,,,,
25.079923871999995,0.0,0.0,0.07963064712224129,-0.9272061651219876,-0.7014041931452212,-0.17446745301674238,0.18977161556207067,-0.9662027953617255,1.0,0.0,0.3835888465921603,0.07671776931843206,-0.15343553863686413,-0.07671776931843206,-0.0,0.4603066159105924,0.2301533079552962,-0.3835888465921603,-0.15343553863686413,0.15343553863686413,0.07671776931843206,0.5370243852290244,0.0,-0.9206132318211848,-0.8932445645332336,-0.42609766125679016,0.842841386795044,-0.4214673340320587,0.7564374804496765,0.20510494709014893,-0.30717527866363525,0.41828054189682007,0.07953108847141266,0.21300852298736572,-0.25739288330078125,-0.32341891527175903,0.6119099855422974,0.34658223390579224,-0.22086768015287817,0.015648633241653442,0.21908792667090893,-0.14463674277067184,0.13325883448123932,-0.1565924733877182,-0.21868908405303955,0.10457013547420502,0.019882772117853165,0.0574409207329154,0.05782482773065567,-0.06916102301329374,0.11370758712291718,0.03079502284526825,-0.22086768015287817,0.015648633241653442,0.21908792667090893,-0.14463674277067184,0.13325883448123932,-0.1565924733877182,-0.21868908405303955,0.10457013547420502,0.019882772117853165,0.0574409207329154,0.05782482773065567,-0.06916102301329374,0.0,0.03079502284526825,-0.20401944478879042,0.09681123194656029,0.24083498369804568,-0.004601942363656963,-0.11044661672776623,-0.14419419406125034,-0.13192234775816525,0.1610679827279924,0.11965050145508016,0.03681553890925526,0.1520345403104434,0.03763229845764948,-0.0028975192660062182,0.17313529825935953,,,,,,
25.100843061999996,0.0,0.0,0.19744037163185854,-0.56941366846315,-0.5443245604657315,-0.1888492631247868,0.18374522898627904,-0.9646624521779651,1.0,0.0,0.15343553863686413,-0.15343553863686413,-0.07671776931843206,-0.07671776931843206,-0.07671776931843206,0.4603066159105924,-0.0,-0.30687107727372825,-0.15343553863686413,0.07671776931843206,-0.07671776931843206,0.5370243852290244,0.0,-1.0740487704580488,-0.9831080436706543,-0.5166426301002502,0.9030362367630005,-0.4456194341182709,0.7896236181259155,0.2195580005645752,-0.37990304827690125,0.41404297947883606,0.04661661013960838,0.25052592158317566,-0.38234278559684753,-0.40031710267066956,0.5032403469085693,0.4996682405471802,-0.24333354993723333,-0.006987608969211578,0.23413663916289806,-0.15067476779222488,0.14155536890029907,-0.15297921001911163,-0.23687102645635605,0.10351074486970901,0.011654152534902096,0.06682027038186789,0.0265873521566391,-0.08838556986302137,0.08654017746448517,0.06906652450561523,-0.24333354993723333,-0.006987608969211578,0.23413663916289806,-0.15067476779222488,0.14155536890029907,-0.15297921001911163,-0.23687102645635605,0.10351074486970901,0.011654152534902096,0.06682027038186789,0.0265873521566391,-0.08838556986302137,0.0,0.06906652450561523,-0.2009514832130188,0.09374327037078913,0.24083498369804568,-0.009203884727313927,-0.11044661672776623,-0.1365242901218222,-0.13192234775816525,0.15493205957644962,0.1150485590914232,0.03681553890925526,0.15050055952255803,0.04376822160919225,-0.0028975192660062182,0.1516595672289605,right_ankle,14,6.6,31,263,5
25.119959279,0.0,0.0,0.23125612588924865,-0.21380283336930536,-0.5748678223756323,-0.19594234135117417,0.17757274684950158,-0.9644037113378104,1.0,0.0,0.07671776931843206,-0.30687107727372825,-0.0,-0.30687107727372825,0.07671776931843206,0.30687107727372825,-0.0,-0.30687107727372825,-0.2301533079552962,-0.0,-0.30687107727372825,0.2301533079552962,0.0,-1.0740487704580488,-1.0526713132858276,-0.5964047908782959,0.9591706991195679,-0.4729708731174469,0.6698694229125977,0.23153650760650635,-0.42486754059791565,0.4465287923812866,0.06694848835468292,0.2658751904964447,-0.43577292561531067,-0.4182828664779663,0.38575035333633423,0.6685128211975098,-0.26072436734102666,-0.026928149163722992,0.2481702547520399,-0.1575126275420189,0.1116168200969696,-0.14998458325862885,-0.24811214953660965,0.11163219809532166,0.01673712208867073,0.07065758761018515,0.013229817152023315,-0.09287701081484556,0.05716767907142639,0.11127766966819763,-0.26072436734102666,-0.026928149163722992,0.2481702547520399,-0.1575126275420189,0.1116168200969696,-0.14998458325862885,-0.24811214953660965,0.11163219809532166,0.01673712208867073,0.07065758761018515,0.013229817152023315,-0.09287701081484556,0.0,0.11127766966819763,-0.19941750242513345,0.0876073472192468,0.23930100291015988,-0.019941750242513212,-0.10431069357622347,-0.13192234775816525,-0.13192234775816525,0.15033011721279266,0.10891263593988043,0.04141748127291223,0.1412966747952441,0.042234240821306446,-0.0028975192660062182,0.1301838361985615,,,,,,
25.140128397000012,0.0,0.0,0.38942658935123475,-0.037088246604879506,-0.3665191429188092,-0.19896954416988494,0.16937920170359438,-0.9652573783831343,1.0,0.0,-0.07671776931843206,-0.4603066159105924,-0.07671776931843206,-0.6137421545474565,0.4603066159105924,0.15343553863686413,-0.07671776931843206,-0.30687107727372825,-0.3835888465921603,0.30687107727372825,-0.6137421545474565,-0.15343553863686413,0.0,-1.150766539776481,-1.0260298252105713,-0.6133586764335632,1.0032624006271362,-0.5180544853210449,0.4431532621383667,0.21929633617401123,-0.4386965334415436,0.5157126784324646,0.16376888751983643,0.25828632712364197,-0.3737832307815552,-0.35748064517974854,0.40653061866760254,0.7668418288230896,-0.2540639953222126,-0.031166620552539825,0.259193180128932,-0.1687835305929184,0.054937779903411865,-0.15304462611675262,-0.25156939774751663,0.12892816960811615,0.040942221879959106,0.06876037176698446,0.02872724086046219,-0.07767645549029112,0.06236274540424347,0.1358599215745926,-0.2540639953222126,-0.031166620552539825,0.259193180128932,-0.1687835305929184,0.054937779903411865,-0.15304462611675262,-0.25156939774751663,0.12892816960811615,0.040942221879959106,0.06876037176698446,0.02872724086046219,-0.07767645549029112,0.0,0.1358599215745926,-0.2009514832130188,0.07686948170404707,0.23930100291015988,-0.0337475773334841,-0.09203884727313838,-0.13038836697027945,-0.1349903093339364,0.14266021327336453,0.0997087512125665,0.04908738521234035,0.12902482849215902,0.03456433688187832,-0.0028975192660062182,0.10103820122873437,,,,,,
25.160048837000005,0.0,0.0,0.42542400517361784,0.12871803233458182,-0.1265363707695889,-0.1978660824309382,0.16114866507261977,-0.9668919904357187,1.0,0.0,-0.15343553863686413,-0.6904599238658886,-0.0,-0.8438954625027527,0.6904599238658886,-0.0,-0.3835888465921603,-0.3835888465921603,-0.4603066159105924,0.4603066159105924,-0.7671776931843206,-0.3835888465921603,0.0,-1.304202078413345,-0.9100866913795471,-0.5818028450012207,1.0628821849822998,-0.5775665044784546,0.16295166313648224,0.20724821090698242,-0.36475494503974915,0.594485342502594,0.26095426082611084,0.20736722648143768,-0.2518811523914337,-0.26490870118141174,0.5310782194137573,0.7767959237098694,-0.22507821186445653,-0.023277662694454193,0.2740981262177229,-0.1836615353822708,-0.01511261984705925,-0.15605665743350983,-0.23308400064706802,0.1486213356256485,0.06523856520652771,0.05603059660643339,0.059202760457992554,-0.05453346949070692,0.09349964559078217,0.13834844529628754,-0.22507821186445653,-0.023277662694454193,0.2740981262177229,-0.1836615353822708,-0.01511261984705925,-0.15605665743350983,-0.23308400064706802,0.1486213356256485,0.06523856520652771,0.05603059660643339,0.059202760457992554,-0.05453346949070692,0.0,0.13834844529628754,-0.20555342557667577,0.061529673825190825,0.23930100291015988,-0.053689327575997314,-0.07823302018216749,-0.13038836697027945,-0.14266021327336453,0.1365242901218222,0.09050486648525302,0.05675728915176892,0.11215103982541698,0.022292490578793234,-0.0028975192660062182,0.07802848941044956,,,,,,
25.18019845500001,0.0,0.0,0.4886921905584123,0.507236313860852,-0.055632369907319255,-0.19088888763942952,0.15209863239719248,-0.9697563810559253,1.0,0.0,-0.5370243852290244,-0.9206132318211848,-0.0,-0.9973310011396168,0.7671776931843206,-0.0,-0.5370243852290244,-0.30687107727372825,-0.4603066159105924,0.3835888465921603,-0.9206132318211848,-0.6137421545474565,0.0,-1.150766539776481,-0.7286839485168457,-0.5152345299720764,1.2131314277648926,-0.5659178495407104,-0.08283786475658417,0.18824037909507751,-0.23786641657352448,0.7076557278633118,0.30872642993927,0.1499229371547699,-0.12518759071826935,-0.22604764997959137,0.6149023771286011,0.6694563031196594,-0.17972752614878118,-0.006635583937168121,0.3116604369133711,-0.18074937164783478,-0.07656000182032585,-0.16080861538648605,-0.20136186853051186,0.17691393196582794,0.0771816074848175,0.041669524274766445,0.09087615087628365,-0.04481820669025183,0.1144556850194931,0.11151354014873505,-0.17972752614878118,-0.006635583937168121,0.3116604369133711,-0.18074937164783478,-0.07656000182032585,-0.16080861538648605,-0.20136186853051186,0.17691393196582794,0.0771816074848175,0.041669524274766445,0.09087615087628365,-0.04481820669025183,0.0,0.11151354014873505,-0.2147573103039897,0.04158792358267717,0.23930100291015988,-0.07669903939428213,-0.05982525072754008,-0.13038836697027945,-0.15493205957644962,0.13038836697027945,0.08283496254582445,0.06442719309119704,0.09067530879501796,0.008486663487822343,-0.0028975192660062182,0.05655275838005054,,,,,,
25.201221706000013,0.0,0.0,0.5781403147231217,0.7548549014875475,0.0719948316447661,-0.17746373282263964,0.14074709844554179,-0.9740107175035682,1.0,0.0,-0.6137421545474565,-1.0740487704580488,0.07671776931843206,-1.227484309094913,0.9973310011396168,-0.0,-0.6904599238658886,-0.3835888465921603,-0.4603066159105924,0.3835888465921603,-1.150766539776481,-0.7671776931843206,0.0,-0.9973310011396168,-0.5227385759353638,-0.4277993440628052,1.346194863319397,-0.5031006336212158,-0.2580699324607849,0.16878849267959595,-0.09919887036085129,0.8045893311500549,0.2927197515964508,0.1133192628622055,-0.05856919661164284,-0.2226579189300537,0.63633131980896,0.5616176724433899,-0.1282411830034107,0.015223212540149689,0.3449262958019972,-0.16504506766796112,-0.12036801874637604,-0.16567158699035645,-0.16669498197734356,0.20114733278751373,0.0731799378991127,0.03251860570162535,0.10753074940294027,-0.04397077392786741,0.11981292068958282,0.08455388247966766,-0.1282411830034107,0.015223212540149689,0.3449262958019972,-0.16504506766796112,-0.12036801874637604,-0.16567158699035645,-0.16669498197734356,0.20114733278751373,0.0731799378991127,0.03251860570162535,0.10753074940294027,-0.04397077392786741,0.0,0.08455388247966766,-0.2285631373949606,0.018578211764392796,0.24543692606170264,-0.1012427320004523,-0.03681553890925526,-0.13038836697027945,-0.1702718674553063,0.12271846303085132,0.07209709703062517,0.07209709703062517,0.06919957776461895,-0.008387125178919708,-0.0028975192660062182,0.04121295050119429,left_hip_pitch,22,7.4,31,76,0
25.22027842,0.0,0.0,0.5999569303730508,0.8584838258247108,0.34033920413889424,-0.16017789892236983,0.13059089848447986,-0.978411497239189,1.0,1.0,-0.6904599238658886,-1.4576376170502092,0.3835888465921603,-1.227484309094913,1.0740487704580488,-0.07671776931843206,-0.9206132318211848,-0.30687107727372825,-0.4603066159105924,0.30687107727372825,-1.0740487704580488,-0.8438954625027527,0.0,-0.7671776931843206,-0.3758261501789093,-0.4007498621940613,1.4031896591186523,-0.4889430105686188,-0.3675336241722107,0.1027025654911995,-0.005959026515483856,0.8433572053909302,0.25091978907585144,0.11157512664794922,-0.09574010968208313,-0.2502213716506958,0.6410249471664429,0.5762485861778259,-0.09151307656429708,0.021985583007335663,0.359174994751811,-0.16150566190481186,-0.14773394167423248,-0.18219306878745556,-0.1433850210160017,0.21083930134773254,0.06272994726896286,0.032082571648061275,0.0982380211353302,-0.050861637108027935,0.12098632752895355,0.08821161091327667,-0.09151307656429708,0.021985583007335663,0.3490658503988659,-0.16150566190481186,-0.14773394167423248,-0.18219306878745556,-0.1433850210160017,0.21083930134773254,0.06272994726896286,0.032082571648061275,0.0982380211353302,-0.050861637108027935,0.0,0.08821161091327667,-0.24236896448593148,-0.010567423205434343,0.25464081078901657,-0.12732040539450828,-0.015339807878856249,-0.1334563285460506,-0.18867963690993372,0.1150485590914232,0.06289321230331124,0.07823302018216749,0.04925782752210574,-0.023726933057775956,-0.0013635384781204157,0.03507702734965153,,,,,,
25.24062336100002,0.0,0.0,0.56941366846315,0.9741118887693352,0.581412807070611,-0.14180344343674897,0.12140007028038219,-0.9824224174790593,1.0,1.0,-0.6137421545474565,-0.9973310011396168,0.5370243852290244,-1.304202078413345,1.150766539776481,-0.15343553863686413,-0.9206132318211848,-0.15343553863686413,-0.4603066159105924,0.3835888465921603,-0.7671776931843206,-0.6137421545474565,0.30687107727372825,-0.15343553863686413,-0.30750054121017456,-0.43298444151878357,1.417199730873108,-0.49064508080482483,-0.43995201587677,0.034849606454372406,0.05843396484851837,0.8955768942832947,0.23085838556289673,0.09756095707416534,-0.1312837153673172,-0.25231456756591797,0.6071876287460327,0.6466554403305054,-0.0744316743221134,0.01392693817615509,0.3626775126904249,-0.16193117946386337,-0.16583853960037231,-0.19915630854666233,-0.12728677317500114,0.22389422357082367,0.05771459639072418,0.028579029254615307,0.08935211971402168,-0.05138493608683348,0.11252699792385101,0.10581332445144653,-0.0744316743221134,0.01392693817615509,0.3490658503988659,-0.16193117946386337,-0.16583853960037231,-0.19915630854666233,-0.12728677317500114,0.22389422357082367,0.05771459639072418,0.028579029254615307,0.08935211971402168,-0.05138493608683348,0.0,0.10581332445144653,-0.25464081078901657,-0.027441211872176394,0.268446637879987,-0.15186409800067846,0.006135923151542766,-0.13805827090970757,-0.20708740636456158,0.11198059751565159,0.04908738521234035,0.07669903939428213,0.033918019643249045,-0.03139683699720408,0.004772384673421906,0.03354304656176617,,,,,,
25.260500890999992,0.0,0.0,0.2181661564992912,0.5181446216858165,0.13308135546456762,-0.12647130157771255,0.11525207321194775,-0.9852522364844382,1.0,1.0,-0.3835888465921603,-0.4603066159105924,0.7671776931843206,-1.0740487704580488,0.9973310011396168,-0.2301533079552962,-0.9973310011396168,-0.07671776931843206,-0.9206132318211848,-0.4603066159105924,-0.4603066159105924,-0.4603066159105924,0.07671776931843206,-0.07671776931843206,-0.234558567404747,-0.42427802085876465,1.2781751155853271,-0.5624493360519409,-0.47287607192993164,0.037651486694812775,0.03982199728488922,0.8808651566505432,0.3265342712402344,0.10779150575399399,-0.04778498038649559,-0.20878101885318756,0.7462348937988281,0.6914774179458618,-0.05619618087075651,0.01610354334115982,0.32792135886847973,-0.1798822432756424,-0.17406955361366272,-0.19845583848655224,-0.13193976506590843,0.2202162891626358,0.0816335678100586,0.031136666424572468,0.11022680345922709,-0.040501548908650875,0.14728881418704987,0.11701881885528564,-0.05619618087075651,0.01610354334115982,0.32792135886847973,-0.1798822432756424,-0.17406955361366272,-0.19845583848655224,-0.13193976506590843,0.2202162891626358,0.0816335678100586,0.031136666424572468,0.11022680345922709,-0.040501548908650875,0.0,0.11701881885528564,-0.2623107147284447,-0.03204315423583336,0.2837864457588437,-0.17333982903107747,0.024543692606170175,-0.1457281748491357,-0.2270291566070748,0.11198059751565159,0.03067961575771294,0.0659611738790824,0.027782096491706723,-0.04060072172451801,0.004772384673421906,0.03354304656176617,,,,,,
25.280613618000018,0.0,0.0,-0.05890486225480862,0.044724062082354694,-0.5803219762881145,-0.1285917150996078,0.11634488509012135,-0.9848492465962025,1.0,1.0,-0.07671776931843206,-0.0,0.7671776931843206,-1.0740487704580488,0.7671776931843206,-0.4603066159105924,-0.7671776931843206,0.07671776931843206,-0.2301533079552962,-0.3835888465921603,-0.2301533079552962,-0.30687107727372825,0.0,-0.07671776931843206,-0.31357821822166443,-0.43507108092308044,1.209267258644104,-0.677848219871521,-0.4996844530105591,-0.04623870924115181,-0.04018799960613251,0.891170084476471,0.4783917963504791,0.15450237691402435,0.03752999007701874,-0.18606868386268616,0.977773904800415,0.8389858603477478,-0.07595109357498586,0.013405278325080872,0.31069439463317394,-0.20873196423053741,-0.18077164888381958,-0.21942838747054338,-0.15194226428866386,0.22279252111911774,0.11959794908761978,0.04281438421458006,0.13155554607510567,-0.034823465161025524,0.2051735669374466,0.15389592945575714,-0.07595109357498586,0.013405278325080872,0.31069439463317394,-0.20873196423053741,-0.18077164888381958,-0.21942838747054338,-0.15194226428866386,0.22279252111911774,0.11959794908761978,0.04281438421458006,0.13155554607510567,-0.034823465161025524,0.0,0.15389592945575714,-0.2623107147284447,-0.03204315423583336,0.2975922728498146,-0.18561167533416256,0.038349519697141066,-0.16260196351587775,-0.24083498369804568,0.1135145783035374,0.024543692606170175,0.05675728915176892,0.024714134915935118,-0.04673664487606077,0.004772384673421906,0.032009065773880366,,,,,,
25.301724206000017,0.0,0.0,-0.18544123302439752,-0.38069994309126315,-0.27379852640661045,-0.13671277376151017,0.11834837131593416,-0.9835157754186253,1.0,1.0,0.0,-0.0,0.5370243852290244,-0.4603066159105924,0.6137421545474565,-0.9206132318211848,-0.5370243852290244,0.07671776931843206,0.0,-0.5370243852290244,0.0,0.0,0.0,0.0,-0.3355363607406616,-0.35408535599708557,0.9361681938171387,-0.7802503108978271,-0.4795568585395813,-0.05892275273799896,-0.11488651484251022,0.7966989874839783,0.5789011716842651,0.1838005632162094,0.12279621511697769,-0.0581643171608448,1.1292794942855835,0.9144540429115295,-0.08144062920473516,0.03365170955657959,0.2424196284264326,-0.23433248698711395,-0.17573975026607513,-0.22259939834475517,-0.1706168930977583,0.19917474687099457,0.14472529292106628,0.050138930790126324,0.1528721023350954,-0.0028473734855651855,0.2430499643087387,0.17276297509670258,-0.08144062920473516,0.03365170955657959,0.2424196284264326,-0.23433248698711395,-0.17573975026607513,-0.22259939834475517,-0.1706168930977583,0.19917474687099457,0.14472529292106628,0.050138930790126324,0.1528721023350954,-0.0028473734855651855,0.0,0.17276297509670258,-0.2623107147284447,-0.03204315423583336,0.3083301383650139,-0.19174759848570533,0.04601942363656919,-0.17487380981896328,-0.25310683000113077,0.11658253987930856,0.024543692606170175,0.04755340442445499,0.024714134915935118,-0.04673664487606077,0.004772384673421906,0.032009065773880366,right_hip_pitch,12,7.5,31,31,1
25.320785587000017,0.0,0.0,-0.33161255787892263,-0.04581489286485115,0.15489797111449674,-0.13875030224016469,0.12446718289191243,-0.9824745665976368,1.0,1.0,0.3835888465921603,0.15343553863686413,0.5370243852290244,-0.15343553863686413,0.30687107727372825,-0.5370243852290244,-0.3835888465921603,0.4603066159105924,0.2301533079552962,-0.4603066159105924,0.0,0.0,0.0,0.15343553863686413,-0.3481159508228302,-0.3409745693206787,0.603644073009491,-0.65860915184021,-0.3625776767730713,-0.08605437725782394,-0.1929410696029663,0.6786933541297913,0.5744137763977051,0.14615438878536224,0.08724187314510345,0.0207296721637249,1.0821478366851807,1.0009323358535767,-0.0845855267252773,0.036929406225681305,0.15928859822452068,-0.20392219722270966,-0.14649495482444763,-0.22938230447471142,-0.19013053178787231,0.16967333853244781,0.14360344409942627,0.04072738718241453,0.14398351684212685,0.01687612384557724,0.231267049908638,0.19438254833221436,-0.0845855267252773,0.036929406225681305,0.15928859822452068,-0.20392219722270966,-0.14649495482444763,-0.22938230447471142,-0.19013053178787231,0.16967333853244781,0.14360344409942627,0.04072738718241453,0.14398351684212685,0.01687612384557724,0.0,0.19438254833221436,-0.25310683000113077,-0.027441211872176394,0.32060198466809897,-0.19174759848570533,0.04908738521234035,-0.18714565612204836,-0.25617479157690193,0.12578642460662248,0.027611654181941336,0.038349519697141066,0.024714134915935118,-0.04673664487606077,0.004772384673421906,0.03507702734965153,,,,,,
25.340769104000003,0.0,0.0,-0.3523383427463553,0.061086523819801536,-0.6370451769779303,-0.13878100143939007,0.13061741311942596,-0.9816714954756857,1.0,1.0,0.6904599238658886,0.30687107727372825,0.6904599238658886,-0.0,0.07671776931843206,-0.6137421545474565,0.2301533079552962,0.5370243852290244,0.3835888465921603,-0.3835888465921603,0.15343553863686413,0.07671776931843206,0.0,0.15343553863686413,-0.46183347702026367,-0.33180367946624756,0.5447748899459839,-0.5051802396774292,-0.2262648195028305,-0.11397839337587357,-0.2967621684074402,0.6550071835517883,0.5166249871253967,0.07094208151102066,0.03587654232978821,0.001883145421743393,0.9601643085479736,0.9477688670158386,-0.11301490827463567,0.03922212868928909,0.1445713024586439,-0.16556496918201447,-0.11241674050688744,-0.23636330850422382,-0.21608580648899078,0.16375179588794708,0.12915624678134918,0.021924310363829136,0.13114218413829803,0.012164492160081863,0.20077116787433624,0.18109168112277985,-0.11301490827463567,0.03922212868928909,0.1445713024586439,-0.16556496918201447,-0.11241674050688744,-0.23636330850422382,-0.21608580648899078,0.16375179588794708,0.12915624678134918,0.021924310363829136,0.13114218413829803,0.012164492160081863,0.0,0.18109168112277985,-0.23930100291015988,-0.01977130793274827,0.3298058693954129,-0.1932815792735907,0.04908738521234035,-0.19788352163724765,-0.2485048876374738,0.13805827090970757,0.035281558121369905,0.035281558121369905,0.02931607727959208,-0.04520266408817497,0.004772384673421906,0.03814498892542313,,,,,,
25.360938945000015,0.0,0.0,-0.2617993877991494,0.09490227807719166,-1.3231777391682011,-0.13974405506797816,0.1326038478747238,-0.9812684742729562,1.0,1.0,0.6904599238658886,0.3835888465921603,0.3835888465921603,-0.07671776931843206,-0.0,-0.5370243852290244,0.5370243852290244,0.7671776931843206,0.9973310011396168,-0.07671776931843206,0.2301533079552962,0.3835888465921603,0.0,0.3835888465921603,-0.649941086769104,-0.43694427609443665,0.6484248638153076,-0.5036667585372925,-0.09606604278087616,-0.08359257876873016,-0.3847023844718933,0.6175873279571533,0.46973153948783875,0.06865768879652023,-0.05063384398818016,-0.030941015109419823,0.885955810546875,0.9235273003578186,-0.16004181071184576,0.012936979532241821,0.17048379592597485,-0.16518659889698029,-0.07986704632639885,-0.22876685485243797,-0.23807086050510406,0.15439683198928833,0.11743288487195969,0.02135321218520403,0.10951458755880594,0.0039584520272910595,0.18221904337406158,0.17503128945827484,-0.16004181071184576,0.012936979532241821,0.17048379592597485,-0.16518659889698029,-0.07986704632639885,-0.22876685485243797,-0.23807086050510406,0.15439683198928833,0.11743288487195969,0.02135321218520403,0.10951458755880594,0.0039584520272910595,0.0,0.17503128945827484,-0.2270291566070748,-0.012101403993320145,0.3390097541227268,-0.1948155600614765,0.04601942363656919,-0.20708740636456158,-0.23623304133438872,0.15339807878856426,0.05522330836388312,0.035281558121369905,0.033918019643249045,-0.03906674093663265,0.004772384673421906,0.045814892864851256,,,,,,
25.38104263400001,0.0,0.0,-0.18762289458939044,0.08835729338221293,34.54442922009777,-0.14086576436310622,0.13372039950410808,-0.9809565184996019,1.0,1.0,0.5370243852290244,0.3835888465921603,0.4603066159105924,-0.07671776931843206,-0.2301533079552962,-0.4603066159105924,0.9206132318211848,0.7671776931843206,0.8438954625027527,0.07671776931843206,0.30687107727372825,0.5370243852290244,0.0,0.6904599238658886,-0.14383351802825928,-0.24460294842720032,0.415251761674881,-1.088621735572815,0.44827353954315186,-0.07460995763540268,0.19132590293884277,0.31117597222328186,0.7243459224700928,-0.22945541143417358,-0.19042786955833435,0.8007954359054565,0.268386572599411,0.8387317657470703,-0.033514918526634574,0.0610223114490509,0.11219052039086819,-0.3114253431558609,0.056217849254608154,-0.2265211995691061,-0.09406378865242004,0.07779399305582047,0.1810864806175232,-0.053175062872469425,0.0745660811662674,0.21189256478101015,0.027826733887195587,0.15383240580558777,-0.05524181071184575,0.0610223114490509,0.11219052039086819,-0.2699865988969803,0.024932953673601155,-0.2265211995691061,-0.13327086050510406,0.07779399305582047,0.1810864806175232,-0.053175062872469425,0.0745660811662674,0.10875845202729106,0.0,0.15383240580558777,-0.21322332951610434,-0.005965480841777379,0.3497476196379261,-0.19788352163724765,0.03988350048502687,-0.2162912910918755,-0.2162912910918755,0.1702718674553063,0.07209709703062517,0.04141748127291223,0.04005394279479181,-0.02832887542143292,0.004772384673421906,0.058086739167936344,,,,,,
25.402073736999995,0.0,0.0,-0.35779249665883756,0.1461713248545251,-0.3861540970037454,-0.1387869269244128,0.13776643481467446,-0.9806929174585345,1.0,0.0,1.0740487704580488,0.2301533079552962,0.6904599238658886,-0.2301533079552962,-0.3835888465921603,-0.3835888465921603,0.8438954625027527,0.8438954625027527,0.6904599238658886,0.2301533079552962,0.15343553863686413,0.6904599238658886,-0.07671776931843206,0.8438954625027527,-0.5225284695625305,-0.3044643700122833,0.7260820269584656,-0.2532961666584015,0.2089446783065796,-0.18539485335350037,-0.12672680616378784,0.7100372910499573,0.5578293204307556,0.12948566675186157,-0.039728667587041855,0.22022393345832825,0.04154802858829498,0.42766714096069336,-0.12818865641020238,0.04605695605278015,0.18989808671176434,-0.10259395092725754,-0.003614366054534912,-0.2542174234986305,-0.1735769659280777,0.17750932276248932,0.1394573301076889,0.036560206674039364,0.11224088165909052,0.06674968916922808,-0.02888290211558342,0.05106624960899353,-0.12818865641020238,0.04605695605278015,0.18989808671176434,-0.16518659889698029,-0.003614366054534912,-0.2542174234986305,-0.1735769659280777,0.17750932276248932,0.1394573301076889,0.036560206674039364,0.11224088165909052,0.06674968916922808,-0.02888290211558342,0.05106624960899353,-0.19174759848570533,-0.0013635384781204157,0.35741752357735423,-0.2024854640009046,0.03067961575771294,-0.22089323345553247,-0.19941750242513345,0.18561167533416256,0.08743690490948142,0.04295146206079803,0.04618986594633413,-0.01452304833046203,0.0032384038855365477,0.07649450862256375,left_knee,23,7.4,30,0,0
25.421033687000005,0.0,0.0,-0.5748678223756323,0.21162117180431245,-0.7635815477475192,-0.1367628211526778,0.14594838376740987,-0.979793345571423,1.0,0.0,1.150766539776481,0.2301533079552962,0.15343553863686413,-0.15343553863686413,-0.4603066159105924,-0.15343553863686413,0.6904599238658886,1.0740487704580488,0.7671776931843206,0.07671776931843206,0.6137421545474565,0.5370243852290244,0.0,0.8438954625027527,-0.6062944531440735,-0.40344753861427307,0.7544541358947754,-0.25475624203681946,0.29518571496009827,-0.08148796111345291,-0.18320751190185547,0.7899227738380432,0.4056551158428192,0.12894891202449799,-0.09276030212640762,0.0868213027715683,0.10815760493278503,0.6095705628395081,-0.14913015230558813,0.021311163902282715,0.1969911139458418,-0.10295896977186203,0.017945893108844757,-0.22824070043861866,-0.1876971423625946,0.1974806934595108,0.1014137789607048,0.03642601799219847,0.09898297302424908,0.03339903149753809,-0.012230508029460907,0.0965421050786972,-0.14913015230558813,0.021311163902282715,0.1969911139458418,-0.10295896977186203,0.017945893108844757,-0.22824070043861866,-0.1876971423625946,0.1974806934595108,0.1014137789607048,0.03642601799219847,0.09898297302424908,0.03339903149753809,-0.012230508029460907,0.0965421050786972,-0.1687378866674205,0.0032384038855365477,0.35895150436524004,-0.2024854640009046,0.018407769454627854,-0.22242721424341783,-0.18867963690993372,0.20708740636456158,0.10277671278833811,0.04141748127291223,0.05846171224941922,-0.0037851828152627442,0.0032384038855365477,0.0933682972893058,,,,,,
25.44110544900002,0.0,0.0,-0.5988660995905544,0.18435040224190105,-0.9719302272043423,-0.13675341972720018,0.15308218626179124,-0.9787054441670521,1.0,0.0,0.9206132318211848,0.15343553863686413,0.07671776931843206,0.15343553863686413,-0.6137421545474565,-0.15343553863686413,0.5370243852290244,0.7671776931843206,0.6904599238658886,-0.15343553863686413,0.5370243852290244,0.2301533079552962,-0.07671776931843206,0.9206132318211848,-0.5575448274612427,-0.4035259783267975,0.7806249856948853,-0.2650994062423706,0.33062422275543213,-0.0372275784611702,-0.1768994927406311,0.7954683303833008,0.37163853645324707,0.10981128364801407,-0.08114299923181534,0.0352945551276207,0.030756115913391113,0.6428866386413574,-0.13694274588488042,0.02129155397415161,0.20353382639586926,-0.10554476082324982,0.026805520057678223,-0.21717560477554798,-0.1861201375722885,0.1988670825958252,0.09290963411331177,0.03164161089807749,0.10188729874789715,0.02051734458655119,-0.03158088028430939,0.10487112402915955,-0.13694274588488042,0.02129155397415161,0.20353382639586926,-0.10554476082324982,0.026805520057678223,-0.21717560477554798,-0.1861201375722885,0.1988670825958252,0.09290963411331177,0.03164161089807749,0.10188729874789715,0.02051734458655119,-0.03158088028430939,0.10487112402915955,-0.15033011721279266,0.007840346249193067,0.36048548515312584,-0.19941750242513345,0.006135923151542766,-0.22549517581918943,-0.17794177139473444,0.22089323345553247,0.1150485590914232,0.0337475773334841,0.06919957776461895,0.0023507403362800217,0.00017044230976494268,0.11177606674393366,,,,,,
25.46122202800001,0.0,0.0,-0.35124751196385884,-0.03490658503988659,-0.7275841319251362,-0.13880615384548087,0.15717755656032392,-0.9777668778233137,1.0,0.0,0.7671776931843206,0.30687107727372825,0.07671776931843206,-0.0,-0.6137421545474565,-0.07671776931843206,0.3835888465921603,0.3835888465921603,0.4603066159105924,-0.3835888465921603,0.5370243852290244,0.5370243852290244,-0.15343553863686413,0.9973310011396168,-0.6019729971885681,-0.4489758610725403,0.7754796147346497,-0.33596566319465637,0.37381279468536377,-0.015783976763486862,-0.21490219235420227,0.7705856561660767,0.3935215473175049,0.12694598734378815,-0.09371036291122437,0.06235411763191223,0.1114780381321907,0.6493226289749146,-0.14804978831671178,0.009929083287715912,0.20224748365581036,-0.12326132506132126,0.03760266304016113,-0.21181470435112715,-0.1956208124756813,0.19264641404151917,0.09838038682937622,0.03592528682202101,0.09874545782804489,0.027282235212624073,-0.01140039972960949,0.10648012161254883,-0.14804978831671178,0.009929083287715912,0.20224748365581036,-0.12326132506132126,0.03760266304016113,-0.21181470435112715,-0.1956208124756813,0.19264641404151917,0.09838038682937622,0.03592528682202101,0.09874545782804489,0.027282235212624073,-0.01140039972960949,0.10648012161254883,-0.1365242901218222,0.013976269400735833,0.3620194659410112,-0.19941750242513345,-0.004601942363656963,-0.2270291566070748,-0.1702718674553063,0.2285631373949606,0.12578642460662248,0.03067961575771294,0.07993744327981823,0.013088605851479307,-0.0028975192660062182,0.13171781698644686,,,,,,
25.481251750000013,0.0,0.0,-0.27707101875409984,-0.27598018797160334,-0.4243331743911214,-0.14685095725043146,0.16112813364977896,-0.9759469867268258,1.0,0.0,0.6137421545474565,0.3835888465921603,-0.0,0.07671776931843206,-0.5370243852290244,-0.07671776931843206,0.30687107727372825,0.15343553863686413,0.4603066159105924,-0.07671776931843206,0.5370243852290244,0.6904599238658886,-0.15343553863686413,0.8438954625027527,-0.6140236258506775,-0.46858274936676025,0.7364248037338257,-0.4026125371456146,0.4316563606262207,0.005194198340177536,-0.2677653729915619,0.7091065049171448,0.46601971983909607,0.1776638627052307,-0.0829668864607811,0.1754947453737259,0.19190286099910736,0.5821460485458374,-0.15106244548223913,0.005027361214160919,0.19248378090560436,-0.13992304354906082,0.052063554525375366,-0.20657016057521105,-0.2088366076350212,0.1772766262292862,0.11650492995977402,0.04860475566238165,0.10143132694065571,0.05556739214807749,0.008705805987119675,0.08968597650527954,-0.15106244548223913,0.005027361214160919,0.19248378090560436,-0.13992304354906082,0.052063554525375366,-0.20657016057521105,-0.2088366076350212,0.1772766262292862,0.11650492995977402,0.04860475566238165,0.10143132694065571,0.05556739214807749,0.0,0.08968597650527954,-0.12271846303085132,0.021646173340163957,0.363553446728897,-0.1963495408493623,-0.010737865515199285,-0.2270291566070748,-0.16566992509164935,0.2300971181828464,0.1349903093339364,0.03067961575771294,0.09067530879501796,0.026894432942450197,-0.004431500053892021,0.1485916056531889,,,,,,
25.50277750700002,0.0,0.0,-0.31852258848896514,-0.6904958853202566,0.02945243112740431,-0.15813774534267958,0.16629969348939852,-0.9733123164962344,1.0,0.0,0.5370243852290244,0.3835888465921603,-0.0,0.07671776931843206,-0.15343553863686413,0.07671776931843206,0.15343553863686413,-0.07671776931843206,0.3835888465921603,-0.0,0.5370243852290244,0.7671776931843206,-0.07671776931843206,0.6137421545474565,-0.649593710899353,-0.47993701696395874,0.7390878200531006,-0.43046286702156067,0.5230778455734253,0.0024543702602386475,-0.3343694806098938,0.6852415800094604,0.5401582717895508,0.24316996335983276,-0.06755140423774719,0.2582840323448181,0.23439735174179077,0.47182559967041016,-0.159954966744408,0.0021887943148612976,0.1931495349854231,-0.14688562601804733,0.07491892576217651,-0.20725511759519577,-0.2254876345396042,0.1713103950023651,0.1350395679473877,0.06498128082603216,0.10528519749641418,0.07626471389085054,0.019329428672790527,0.06210586428642273,-0.159954966744408,0.0021887943148612976,0.1931495349854231,-0.14688562601804733,0.07491892576217651,-0.20725511759519577,-0.2254876345396042,0.1713103950023651,0.1350395679473877,0.06498128082603216,0.10528519749641418,0.07626471389085054,0.0,0.06210586428642273,-0.11198059751565159,0.02931607727959208,0.35895150436524004,-0.19174759848570533,-0.012271846303085088,-0.22549517581918943,-0.16260196351587775,0.2270291566070748,0.14266021327336453,0.03067961575771294,0.10294715509810305,0.04070026003342109,-0.010567423205434343,0.16086345195627444,right_knee,13,6.8,30,83,2
