time_s,forward_cmd_m_s,yaw_cmd_rad_s,gyro_x,gyro_y,gyro_z,grav_x,grav_y,grav_z,left_contact,right_contact,left_hip_yaw_velocity_rad_s,left_hip_roll_velocity_rad_s,left_hip_pitch_velocity_rad_s,left_knee_velocity_rad_s,left_ankle_velocity_rad_s,neck_pitch_velocity_rad_s,head_pitch_velocity_rad_s,head_yaw_velocity_rad_s,head_roll_velocity_rad_s,right_hip_yaw_velocity_rad_s,right_hip_roll_velocity_rad_s,right_hip_pitch_velocity_rad_s,right_knee_velocity_rad_s,right_ankle_velocity_rad_s,left_hip_yaw_action,left_hip_roll_action,left_hip_pitch_action,left_knee_action,left_ankle_action,neck_pitch_action,head_pitch_action,head_yaw_action,head_roll_action,right_hip_yaw_action,right_hip_roll_action,right_hip_pitch_action,right_knee_action,right_ankle_action,left_hip_yaw_unclipped_target_rad,left_hip_roll_unclipped_target_rad,left_hip_pitch_unclipped_target_rad,left_knee_unclipped_target_rad,left_ankle_unclipped_target_rad,neck_pitch_unclipped_target_rad,head_pitch_unclipped_target_rad,head_yaw_unclipped_target_rad,head_roll_unclipped_target_rad,right_hip_yaw_unclipped_target_rad,right_hip_roll_unclipped_target_rad,right_hip_pitch_unclipped_target_rad,right_knee_unclipped_target_rad,right_ankle_unclipped_target_rad,left_hip_yaw_target_rad,left_hip_roll_target_rad,left_hip_pitch_target_rad,left_knee_target_rad,left_ankle_target_rad,neck_pitch_target_rad,head_pitch_target_rad,head_yaw_target_rad,head_roll_target_rad,right_hip_yaw_target_rad,right_hip_roll_target_rad,right_hip_pitch_target_rad,right_knee_target_rad,right_ankle_target_rad,left_hip_yaw_actual_rad,left_hip_roll_actual_rad,left_hip_pitch_actual_rad,left_knee_actual_rad,left_ankle_actual_rad,neck_pitch_actual_rad,head_pitch_actual_rad,head_yaw_actual_rad,head_roll_actual_rad,right_hip_yaw_actual_rad,right_hip_roll_actual_rad,right_hip_pitch_actual_rad,right_knee_actual_rad,right_ankle_actual_rad
36.675848214999974,0.0,0.0,0.02399827721492203,-0.001090830782496456,0.0,-0.05204574800861199,-0.0724558452668912,-0.9960127462040254,1.0,1.0,0.0,-0.0,-0.0,-0.0,-0.0,-0.0,-0.0,-0.07671776931843206,0.0,-0.0,0.0,0.0,0.0,0.0,0.008754128590226173,-0.06393596529960632,0.12097916007041931,0.16139769554138184,0.2467394918203354,0.005538638681173325,0.041636452078819275,0.025611506775021553,-0.015243031084537506,-0.021746544167399406,-0.0334974005818367,0.1376899927854538,0.16730499267578125,0.3126121759414673,0.004631993127986789,0.1061890572309494,0.03862236998975277,0.0010795146226882935,0.0058343373239040375,-0.2064840504899621,-0.13148615136742592,0.006402876693755388,-0.0038107577711343765,-0.0012478460557758808,0.11379869841039181,0.046116204001009464,0.002556338906288147,0.02230250835418701,0.004631993127986789,0.1061890572309494,0.03862236998975277,0.0,0.0058343373239040375,-0.2064840504899621,-0.13148615136742592,0.006402876693755388,-0.0038107577711343765,-0.0012478460557758808,0.11379869841039181,0.046116204001009464,0.0,0.02230250835418701,0.0015339807878858025,0.1213549245527309,0.015339807878856249,0.003067961575771161,-0.07056311624273937,-0.21322332951610434,-0.1365242901218222,0.003067961575771161,0.009203884727313927,0.007669903939428124,0.11675298218907394,0.01462258663936511,-0.004431500053892021,-0.06463172386291498
36.69498992199999,0.0,0.0,0.0272707695624114,0.0,0.008726646259971648,-0.052041872997528216,-0.07347087952592218,-0.9959385891291674,1.0,1.0,0.0,-0.0,-0.0,-0.07671776931843206,0.07671776931843206,-0.0,-0.0,0.0,0.0,-0.0,0.0,0.0,-0.07671776931843206,0.0,0.04038762301206589,-0.04714899882674217,0.09885165095329285,0.12570464611053467,0.2006729245185852,-0.009060580283403397,0.06182481348514557,0.003605583682656288,0.001065993681550026,-0.028173815459012985,-0.03222871944308281,0.13278500735759735,0.1725446879863739,0.33572444319725037,0.012540366733446717,0.11038579884916544,0.03309049271047115,-0.007843747735023499,-0.005682304501533508,-0.21013385523110628,-0.12643906101584435,0.000901395920664072,0.0002664984203875065,-0.0028546638786792755,0.11411586869508028,0.04488995764404535,0.00386626273393631,0.028080575168132782,0.012540366733446717,0.11038579884916544,0.03309049271047115,-0.007843747735023499,-0.005682304501533508,-0.21013385523110628,-0.12643906101584435,0.000901395920664072,0.0002664984203875065,-0.0028546638786792755,0.11411586869508028,0.04488995764404535,0.0,0.028080575168132782,0.0015339807878858025,0.1213549245527309,0.015339807878856249,-0.0,-0.0674951546669682,-0.21322332951610434,-0.1365242901218222,0.003067961575771161,0.009203884727313927,0.007669903939428124,0.11675298218907394,0.01462258663936511,-0.005965480841777379,-0.06463172386291498
36.712706526000034,0.0,0.0,0.044724062082354694,0.004363323129985824,0.002181661564992912,-0.05203794467412429,-0.07448568551394259,-0.995863411802849,1.0,1.0,0.0,-0.0,-0.0,-0.30687107727372825,0.2301533079552962,-0.0,-0.0,0.0,0.0,-0.0,0.0,0.0,-0.2301533079552962,0.0,0.04313921183347702,-0.04683342203497887,0.09221740067005157,0.11368617415428162,0.2023891657590866,-0.022632716223597527,0.0704655796289444,0.020603692159056664,0.00513874925673008,-0.026291824877262115,-0.03255303576588631,0.14265215396881104,0.17443156242370605,0.3448357880115509,0.0132282639387995,0.11046469304710627,0.031431930139660835,-0.010848365724086761,-0.005253244191408157,-0.2135268892161548,-0.12427886947989464,0.005150923039764166,0.00128468731418252,-0.002384166233241558,0.1140347896143794,0.047356744296848774,0.004337981343269348,0.030358411371707916,0.0132282639387995,0.11046469304710627,0.031431930139660835,-0.010848365724086761,-0.005253244191408157,-0.2135268892161548,-0.12427886947989464,0.005150923039764166,0.00128468731418252,-0.002384166233241558,0.1140347896143794,0.047356744296848774,0.0,0.030358411371707916,0.0015339807878858025,0.1213549245527309,0.015339807878856249,-0.007669903939428124,-0.06289321230331124,-0.21322332951610434,-0.1365242901218222,0.003067961575771161,0.009203884727313927,0.007669903939428124,0.11675298218907394,0.016156567427250468,-0.012101403993320145,-0.06463172386291498
36.73261036700001,0.0,0.0,0.20398535632683726,0.007635815477475192,-0.013089969389957472,-0.17989331959511745,-0.07436930530747872,-0.9808708375689085,1.0,1.0,0.0,-0.07671776931843206,-0.0,-0.4603066159105924,0.3835888465921603,-0.0,0.07671776931843206,0.0,0.0,-0.0,0.0,0.07671776931843206,-0.3835888465921603,0.07671776931843206,-0.06461551040410995,-0.10401803255081177,0.040837351232767105,-0.1414891481399536,-0.026046879589557648,-0.259045273065567,-0.11916916817426682,0.19730883836746216,0.19143979251384735,0.01633400097489357,0.008253678679466248,0.374579519033432,0.5581289529800415,0.6384104490280151,-0.013710416620597243,0.09616854041814804,0.018586917780339718,-0.07464219629764557,-0.06236225552856922,-0.2726300284266472,-0.17168755643069744,0.04932720959186554,0.04785994812846184,0.008272290229797363,0.12423646822571754,0.10533858556300402,0.10026232898235321,0.10375207662582397,-0.013710416620597243,0.09616854041814804,0.018586917780339718,-0.07464219629764557,-0.06236225552856922,-0.2726300284266472,-0.17168755643069744,0.04932720959186554,0.04785994812846184,0.008272290229797363,0.12423646822571754,0.10533858556300402,0.0,0.10375207662582397,0.0015339807878858025,0.1198209437648451,0.015339807878856249,-0.018407769454627854,-0.05675728915176892,-0.21322332951610434,-0.1349903093339364,0.004601942363656963,0.009203884727313927,0.006135923151542766,0.11675298218907394,0.016156567427250468,-0.01977130793274827,-0.06156376228714382
36.75294360600003,0.0,0.0,0.2530727415391778,0.014180800172453928,-0.04363323129985824,-0.1798521801664979,-0.07736658029508568,-0.9806465242597874,1.0,1.0,0.07671776931843206,-0.0,-0.0,-0.4603066159105924,0.2301533079552962,-0.0,-0.0,0.07671776931843206,0.0,-0.07671776931843206,0.0,0.0,-0.3835888465921603,0.15343553863686413,-0.0928407683968544,-0.13995493948459625,-0.043399322777986526,-0.2603064477443695,-0.045796796679496765,-0.28635260462760925,-0.22567862272262573,0.21671177446842194,0.25476524233818054,0.05777446925640106,-0.04924879968166351,0.4631766080856323,0.687203049659729,0.767093300819397,-0.020766731118783355,0.08718431368470192,-0.00247225072234869,-0.10434652119874954,-0.067299734801054,-0.27945686131715775,-0.19831492006778717,0.054177943617105484,0.06369131058454514,0.018632407300174236,0.1098608486354351,0.1274878578260541,0.13253085315227509,0.13592278957366943,-0.020766731118783355,0.08718431368470192,-0.00247225072234869,-0.10434652119874954,-0.067299734801054,-0.27945686131715775,-0.19831492006778717,0.054177943617105484,0.06369131058454514,0.018632407300174236,0.1098608486354351,0.1274878578260541,0.0,0.13592278957366943,0.003067961575771161,0.1182869629769593,0.01687378866674205,-0.027611654181941336,-0.05062136600022615,-0.21322332951610434,-0.1334563285460506,0.004601942363656963,0.009203884727313927,0.004601942363656963,0.11675298218907394,0.01769054821513627,-0.028975192660062196,-0.05696181992348685
36.77286407600002,0.0,0.0,0.14289883250703572,0.014180800172453928,-0.05999569303730508,-0.17980943597325386,-0.08036175909419167,-0.9804134609491383,1.0,1.0,0.0,-0.15343553863686413,0.2301533079552962,-0.4603066159105924,0.3835888465921603,-0.0,0.15343553863686413,0.0,0.0,-0.07671776931843206,0.0,0.07671776931843206,-0.3835888465921603,0.30687107727372825,-0.09672065079212189,-0.17085810005664825,-0.10213716328144073,-0.26042914390563965,-0.011122465133666992,-0.27394580841064453,-0.2910383939743042,0.19940583407878876,0.2816540002822876,0.06600067764520645,-0.0658557340502739,0.5046601891517639,0.7107323408126831,0.7850523591041565,-0.021736701717600226,0.07945852354168892,-0.017156710848212242,-0.10437719523906708,-0.05863115191459656,-0.27635516226291656,-0.2146548628807068,0.04985145851969719,0.0704135000705719,0.020688959397375584,0.10570911504328251,0.137858753092587,0.1384131759405136,0.14041255414485931,-0.021736701717600226,0.07945852354168892,-0.017156710848212242,-0.10437719523906708,-0.05863115191459656,-0.27635516226291656,-0.2146548628807068,0.04985145851969719,0.0704135000705719,0.020688959397375584,0.10570911504328251,0.137858753092587,0.0,0.14041255414485931,0.003067961575771161,0.11675298218907394,0.021475731030399015,-0.03681553890925526,-0.04295146206079803,-0.2147573103039897,-0.13038836697027945,0.004601942363656963,0.009203884727313927,0.003067961575771161,0.11675298218907394,0.02075850979090743,-0.03511111581160452,-0.05082589677194409
36.79281273000004,0.0,0.0,0.27707101875409984,0.001090830782496456,-0.06217735460229799,-0.1799572188396415,-0.0824385024851989,-0.9802139015008405,1.0,1.0,0.0,-0.07671776931843206,0.2301533079552962,-0.4603066159105924,0.4603066159105924,-0.07671776931843206,0.15343553863686413,0.0,0.0,-0.07671776931843206,0.0,0.15343553863686413,-0.3835888465921603,0.3835888465921603,-0.1078992560505867,-0.1737665981054306,-0.09739729762077332,-0.2894077003002167,-0.023546546697616577,-0.25487950444221497,-0.3407632112503052,0.19733870029449463,0.27539128065109253,0.07563608884811401,-0.08807284384965897,0.5237947702407837,0.7428889274597168,0.8126229643821716,-0.02453135303221643,0.07873139902949333,-0.015971744433045387,-0.11162183433771133,-0.061737172305583954,-0.2715885862708092,-0.22708606719970703,0.04933467507362366,0.06884782016277313,0.023097812198102474,0.10015483759343624,0.14264239836484194,0.14645232260227203,0.1473052054643631,-0.02453135303221643,0.07873139902949333,-0.015971744433045387,-0.11162183433771133,-0.061737172305583954,-0.2715885862708092,-0.22708606719970703,0.04933467507362366,0.06884782016277313,0.023097812198102474,0.10015483759343624,0.14264239836484194,0.0,0.1473052054643631,0.003067961575771161,0.11368502061330234,0.026077673394055978,-0.04448544284868339,-0.0337475773334841,-0.2162912910918755,-0.12885438618239364,0.004601942363656963,0.009203884727313927,0.003067961575771161,0.11675298218907394,0.026894432942450197,-0.041247038963147284,-0.04315599283251596
36.812673959999984,0.0,0.0,0.23561944901923448,0.006544984694978736,0.014180800172453928,-0.17992703318756276,-0.08443503233382833,-0.9800494824462217,1.0,1.0,-0.07671776931843206,-0.2301533079552962,0.2301533079552962,-0.3835888465921603,0.3835888465921603,-0.2301533079552962,-0.0,0.0,0.07671776931843206,-0.0,0.0,0.30687107727372825,-0.07671776931843206,0.3835888465921603,-0.1142091378569603,-0.20149683952331543,-0.13345284759998322,-0.3081206679344177,-0.008891597390174866,-0.2600681185722351,-0.3854028582572937,0.19034042954444885,0.3018593490123749,0.09600948542356491,-0.09140552580356598,0.5784440636634827,0.778846025466919,0.8443257808685303,-0.02610882348380983,0.07179883867502213,-0.024985631927847862,-0.1163000762462616,-0.058073434978723526,-0.2728857398033142,-0.23824597895145416,0.04758510738611221,0.07546483725309372,0.0281911613419652,0.09932166710495949,0.15630472172051668,0.15544159710407257,0.15523090958595276,-0.02610882348380983,0.07179883867502213,-0.024985631927847862,-0.1163000762462616,-0.058073434978723526,-0.2728857398033142,-0.23824597895145416,0.04758510738611221,0.07546483725309372,0.0281911613419652,0.09932166710495949,0.15630472172051668,0.0,0.15523090958595276,0.0015339807878858025,0.10754909746176002,0.03067961575771294,-0.05062136600022615,-0.026077673394055978,-0.22396119503130363,-0.12885438618239364,0.004601942363656963,0.010737865515199285,0.006135923151542766,0.11675298218907394,0.03763229845764948,-0.042781019751033086,-0.033952108105202036
36.83219065900005,0.0,0.0,-0.23234695667174513,-0.001090830782496456,0.09381144729469522,-0.052053012598996445,-0.08369307908073938,-0.9951311232161084,1.0,1.0,-0.07671776931843206,-0.30687107727372825,0.15343553863686413,-0.2301533079552962,0.3835888465921603,-0.30687107727372825,-0.15343553863686413,0.0,0.0,0.15343553863686413,0.0,0.6137421545474565,-0.07671776931843206,0.4603066159105924,-0.014833926223218441,-0.08111472427845001,-0.01630641520023346,-0.016236156225204468,0.21713951230049133,0.005614154040813446,-0.18034234642982483,0.001419559121131897,0.1105586588382721,0.10657693445682526,-0.03636045753955841,0.4440142810344696,0.1691073775291443,0.42366141080856323,-0.0012650205753743649,0.10189436748623848,0.004300976172089577,-0.04332894831895828,-0.0015656575560569763,-0.20646517165005207,-0.18698085099458694,0.00035488978028297424,0.027639664709568024,0.030833023600280285,0.11308293417096138,0.12269727606326342,0.0030069351196289062,0.050064817070961,-0.0012650205753743649,0.10189436748623848,0.004300976172089577,-0.04332894831895828,-0.0015656575560569763,-0.20646517165005207,-0.18698085099458694,0.00035488978028297424,0.027639664709568024,0.030833023600280285,0.11308293417096138,0.12269727606326342,0.0,0.050430909585952755,-0.0015339807878858025,0.10141317431021725,0.0322135965455983,-0.053689327575997314,-0.018407769454627854,-0.23163109897073175,-0.1334563285460506,0.007669903939428124,0.010737865515199285,0.010737865515199285,0.11675298218907394,0.04990414476073457,-0.042781019751033086,-0.024748223377888554
36.852263773999994,0.0,0.0,-0.44833145160604343,-0.004363323129985824,-0.09272061651219876,-0.05203396307487573,-0.0755002601478589,-0.9957872149231121,1.0,1.0,-0.30687107727372825,-0.30687107727372825,-0.0,-0.15343553863686413,0.30687107727372825,-0.5370243852290244,-0.15343553863686413,0.2301533079552962,0.0,0.2301533079552962,0.0,0.6137421545474565,0.0,0.5370243852290244,-0.022901736199855804,-0.06408721208572388,0.10689301788806915,0.10812971740961075,0.2989278733730316,-0.00199316069483757,-0.06757646054029465,-0.010824711062014103,0.05702171102166176,0.05769164860248566,-0.006949547212570906,0.5143570899963379,-0.062458425760269165,0.23157286643981934,-0.0032819730695337057,0.10615124553442001,0.03510083444416523,-0.012237479910254478,0.018881432712078094,-0.20836700033396482,-0.1587893795222044,-0.0027061777655035257,0.01425542775541544,0.018611702136695385,0.12043566175270826,0.1402829783037305,-0.05488451570272446,0.0020426809787750244,-0.0032819730695337057,0.10615124553442001,0.03510083444416523,-0.012237479910254478,0.018881432712078094,-0.20836700033396482,-0.1587893795222044,-0.0027061777655035257,0.01425542775541544,0.018611702136695385,0.12043566175270826,0.1402829783037305,-0.05488451570272446,0.0020426809787750244,-0.007669903939428124,0.09681123194656029,0.0322135965455983,-0.05829126993965428,-0.01380582709097089,-0.24236896448593148,-0.1349903093339364,0.015339807878856249,0.009203884727313927,0.015339807878856249,0.11675298218907394,0.06370997185170546,-0.044315000538918445,-0.012476377074803022
36.87230979699996,0.0,0.0,-0.4243331743911214,-0.05672320068981571,-0.28579766501407144,-0.052011417929481454,-0.06730889379109366,-0.9963755944530075,1.0,1.0,-0.3835888465921603,-0.2301533079552962,-0.0,-0.30687107727372825,0.15343553863686413,-0.5370243852290244,-0.15343553863686413,0.4603066159105924,0.0,0.2301533079552962,-0.07671776931843206,0.6904599238658886,-0.07671776931843206,0.6904599238658886,-0.04344046860933304,-0.061618622392416,0.15469485521316528,0.13079756498336792,0.3717160224914551,-0.041326723992824554,-0.003902025520801544,0.011806625872850418,0.02520904690027237,0.0324944369494915,-0.031174469739198685,0.5828389525413513,-0.1582237184047699,0.14801128208637238,-0.008416656171903014,0.10676839295774698,0.04705129377543926,-0.0065705180168151855,0.03707846999168396,-0.21820039115846157,-0.14287077076733112,0.0029516564682126045,0.006302261725068092,0.012312399223446846,0.11437943112105131,0.15740344393998384,-0.07882583886384964,-0.018847715109586716,-0.008416656171903014,0.10676839295774698,0.04705129377543926,-0.0065705180168151855,0.03707846999168396,-0.21820039115846157,-0.14287077076733112,0.0029516564682126045,0.006302261725068092,0.012312399223446846,0.11437943112105131,0.15740344393998384,-0.07882583886384964,-0.018847715109586716,-0.01687378866674205,0.09220928958290332,0.0322135965455983,-0.0674951546669682,-0.006135923151542766,-0.25310683000113077,-0.14112623248547917,0.023009711818284817,0.012271846303085088,0.021475731030399015,0.11215103982541698,0.07598181815479055,-0.044315000538918445,0.0013294500161674244
36.892401577999976,0.0,0.0,-0.4439681284760576,-0.22143864884678055,-0.36760997370130566,-0.056107320036489564,-0.05916771931120717,-0.996670030466369,1.0,1.0,-0.30687107727372825,-0.07671776931843206,0.07671776931843206,-0.4603066159105924,0.3835888465921603,-0.4603066159105924,-0.3835888465921603,0.3835888465921603,0.2301533079552962,0.30687107727372825,-0.2301533079552962,0.6137421545474565,0.0,0.6904599238658886,-0.07800354063510895,-0.08309517800807953,0.20653730630874634,0.13042668998241425,0.42702949047088623,-0.0957832783460617,0.0050420090556144714,0.06472159922122955,0.025670036673545837,0.03260720148682594,-0.03737303242087364,0.6675630211830139,-0.2108735740184784,0.06875578314065933,-0.01705742417834699,0.1013992540538311,0.060011906549334526,-0.006663236767053604,0.05090683698654175,-0.23181452974677086,-0.14063476212322712,0.01618039980530739,0.006417509168386459,0.012340590357780457,0.11282979045063257,0.1785844611003995,-0.09198830276727676,-0.038661589846014977,-0.01705742417834699,0.1013992540538311,0.060011906549334526,-0.006663236767053604,0.05090683698654175,-0.23181452974677086,-0.14063476212322712,0.01618039980530739,0.006417509168386459,0.012340590357780457,0.11282979045063257,0.1785844611003995,-0.09198830276727676,-0.038661589846014977,-0.021475731030399015,0.09067530879501796,0.0337475773334841,-0.07516505860639633,-0.0015339807878858025,-0.2623107147284447,-0.15033011721279266,0.03067961575771294,0.015339807878856249,0.026077673394055978,0.10908307824964582,0.08671968366999028,-0.044315000538918445,0.018203238682909476
36.912519488000044,0.0,0.0,-0.6501351463678877,-0.17671458676442586,-0.22689280275926285,-0.05919285758022573,-0.047966625970182926,-0.9970934802738024,1.0,1.0,-0.07671776931843206,-0.07671776931843206,0.07671776931843206,-0.30687107727372825,0.07671776931843206,-0.4603066159105924,-0.4603066159105924,0.30687107727372825,0.2301533079552962,0.07671776931843206,-0.07671776931843206,0.5370243852290244,0.0,0.9206132318211848,-0.08275457471609116,-0.10981473326683044,0.25038889050483704,0.10845249146223068,0.43795114755630493,-0.12551957368850708,0.034709662199020386,0.10379020124673843,0.0825185626745224,0.058709681034088135,-0.001967587973922491,0.76396644115448,-0.3143317699432373,0.046976275742053986,-0.018245182698592544,0.09471936523914337,0.0709748025983572,-0.012156786397099495,0.05363725125789642,-0.2392486035823822,-0.13321784883737564,0.02594755031168461,0.0206296406686306,0.018866210244596004,0.12168115156237036,0.202685316093266,-0.11785285174846649,-0.04410646669566631,-0.018245182698592544,0.09471936523914337,0.0709748025983572,-0.012156786397099495,0.05363725125789642,-0.2392486035823822,-0.13321784883737564,0.02594755031168461,0.0206296406686306,0.018866210244596004,0.12168115156237036,0.202685316093266,-0.11785285174846649,-0.04410646669566631,-0.023009711818284817,0.09067530879501796,0.035281558121369905,-0.07976700097005329,-0.0,-0.2699806186678728,-0.15953400194010658,0.0337475773334841,0.021475731030399015,0.027611654181941336,0.10754909746176002,0.09899152997307537,-0.044315000538918445,0.03661100813753733
36.932574714,0.0,0.0,-0.5792311455056182,-0.09490227807719166,-0.18871372537188688,-0.06119327669687419,-0.03671596601812451,-0.9974504101590492,1.0,1.0,-0.07671776931843206,-0.0,-0.0,-0.2301533079552962,0.15343553863686413,-0.30687107727372825,-0.4603066159105924,0.15343553863686413,0.30687107727372825,-0.0,-0.07671776931843206,0.3835888465921603,0.0,0.9206132318211848,-0.10253491252660751,-0.10825933516025543,0.24526289105415344,0.08807740360498428,0.44553202390670776,-0.15638411045074463,0.045764610171318054,0.12908470630645752,0.11198301613330841,0.06620107591152191,0.004805378150194883,0.8044101595878601,-0.34529396891593933,0.047824926674366,-0.023190267151221633,0.09510821476578712,0.0696933027356863,-0.017250558361411095,0.05553247034549713,-0.2469647377729416,-0.13045411184430122,0.03227117657661438,0.027995754033327103,0.02073905896395445,0.1233743930933997,0.21279624570161104,-0.125593401491642,-0.04389430396258831,-0.023190267151221633,0.09510821476578712,0.0696933027356863,-0.017250558361411095,0.05553247034549713,-0.2469647377729416,-0.13045411184430122,0.03227117657661438,0.027995754033327103,0.02073905896395445,0.1233743930933997,0.21279624570161104,-0.125593401491642,-0.04389430396258831,-0.023009711818284817,0.09067530879501796,0.035281558121369905,-0.08436894333371026,0.003067961575771161,-0.2715145994557586,-0.1687378866674205,0.03681553890925526,0.027611654181941336,0.027611654181941336,0.10908307824964582,0.10666143391250349,-0.044315000538918445,0.05501877759216518
36.95270656799994,0.0,0.0,-0.35124751196385884,-0.0719948316447661,-0.30870511144649704,-0.062225819767712943,-0.028562671368786274,-0.9976533070954633,1.0,1.0,0.0,-0.0,-0.0,-0.15343553863686413,0.30687107727372825,-0.07671776931843206,-0.4603066159105924,0.07671776931843206,0.3835888465921603,-0.0,0.07671776931843206,0.30687107727372825,-0.07671776931843206,0.9206132318211848,-0.10984324663877487,-0.06463755667209625,0.22256818413734436,0.09082944691181183,0.4366663694381714,-0.16051149368286133,0.048416778445243835,0.11884091049432755,0.09252581000328064,0.04057757183909416,-0.02123858593404293,0.7734735608100891,-0.30142417550086975,0.06612494587898254,-0.025017350679263473,0.10601365938782692,0.06401962600648403,-0.01656254753470421,0.05331605672836304,-0.24799658358097076,-0.12979106977581978,0.029710227623581886,0.02313145250082016,0.014333182945847511,0.11686340207234025,0.2050620960071683,-0.1146259531378746,-0.039319299161434174,-0.025017350679263473,0.10601365938782692,0.06401962600648403,-0.01656254753470421,0.05331605672836304,-0.24799658358097076,-0.12979106977581978,0.029710227623581886,0.02313145250082016,0.014333182945847511,0.11686340207234025,0.2050620960071683,-0.1146259531378746,-0.039319299161434174,-0.023009711818284817,0.09374327037078913,0.03681553890925526,-0.08436894333371026,0.009203884727313927,-0.273048580243644,-0.1794757521826198,0.038349519697141066,0.0337475773334841,0.027611654181941336,0.11061705903753118,0.11279735706404581,-0.04584898132680425,0.07342654704679259
36.97497475199998,0.0,0.0,-0.35124751196385884,-0.0719948316447661,-0.30870511144649704,-0.062225819767712943,-0.028562671368786274,-0.9976533070954633,1.0,1.0,0.0,0.2301533079552962,0.07671776931843206,-0.0,0.4603066159105924,-0.0,-0.3835888465921603,0.07671776931843206,0.3835888465921603,-0.0,0.07671776931843206,0.3835888465921603,-0.07671776931843206,0.8438954625027527,-0.1072407141327858,-0.040445756167173386,0.18885251879692078,0.08266264200210571,0.4206838011741638,-0.1394808292388916,0.06752096116542816,0.12139499932527542,0.1074804812669754,0.036704596132040024,-0.009501300752162933,0.7861778140068054,-0.29713669419288635,0.0976218730211258,-0.024366717552766204,0.11206160951405764,0.055590709671378136,-0.018604248762130737,0.049320414662361145,-0.24273891746997833,-0.1250150240957737,0.030348749831318855,0.02687012031674385,0.013364939019083977,0.11979772336781025,0.20823815930634737,-0.11355408281087875,-0.03144506737589836,-0.024366717552766204,0.11206160951405764,0.055590709671378136,-0.018604248762130737,0.049320414662361145,-0.24273891746997833,-0.1250150240957737,0.030348749831318855,0.02687012031674385,0.013364939019083977,0.11979772336781025,0.20823815930634737,-0.11355408281087875,-0.03144506737589836,-0.023009711818284817,0.09834521273444609,0.03681553890925526,-0.08436894333371026,0.019941750242513212,-0.273048580243644,-0.1825437137583914,0.038349519697141066,0.04295146206079803,0.027611654181941336,0.11061705903753118,0.12046726100347438,-0.04891694290257541,0.09030033571353464
36.992931573999954,0.0,0.0,-0.3621558197888234,-0.35779249665883756,-0.38069994309126315,-0.07145517490762887,-0.01633261140745803,-0.9973100840679058,1.0,1.0,0.07671776931843206,0.30687107727372825,-0.0,-0.0,0.4603066159105924,-0.0,-0.15343553863686413,0.0,0.2301533079552962,-0.15343553863686413,0.07671776931843206,0.4603066159105924,-0.2301533079552962,0.8438954625027527,-0.12031997740268707,-0.060721505433321,0.24627768993377686,0.10490144789218903,0.48219943046569824,-0.1646171361207962,0.033240944147109985,0.15593737363815308,0.14575473964214325,0.04958324879407883,0.006796704139560461,0.7875989675521851,-0.28596439957618713,0.03213653713464737,-0.027636533370241523,0.10699267219752073,0.06994700245559216,-0.013044547289609909,0.06469932198524475,-0.24902299419045448,-0.13358502835035324,0.03898434340953827,0.03643868491053581,0.016584602184593678,0.1238722245907411,0.20859344769269228,-0.11076100915670395,-0.04781640134751797,-0.027636533370241523,0.10699267219752073,0.06994700245559216,-0.013044547289609909,0.06469932198524475,-0.24902299419045448,-0.13358502835035324,0.03898434340953827,0.03643868491053581,0.016584602184593678,0.1238722245907411,0.20859344769269228,-0.11076100915670395,-0.04781640134751797,-0.021475731030399015,0.10448113588598885,0.03681553890925526,-0.08436894333371026,0.02914563496982714,-0.2715145994557586,-0.18407769454627676,0.038349519697141066,0.04755340442445499,0.024543692606170175,0.11368502061330234,0.13120512651867366,-0.055052866054118174,0.10564014359239134
37.013124704999996,0.0,0.0,-0.3621558197888234,-0.35779249665883756,-0.38069994309126315,-0.07145517490762887,-0.01633261140745803,-0.9973100840679058,1.0,1.0,0.0,0.2301533079552962,-0.0,-0.0,0.3835888465921603,0.15343553863686413,0.15343553863686413,0.0,0.2301533079552962,-0.15343553863686413,0.07671776931843206,0.5370243852290244,-0.4603066159105924,0.6904599238658886,-0.11444252729415894,-0.035405587404966354,0.21866931021213531,0.08515451103448868,0.5002506375312805,-0.130178302526474,0.043900102376937866,0.14228646457195282,0.14433653652668,0.048212744295597076,-0.0031592161394655704,0.7910332679748535,-0.27632051706314087,0.026364624500274658,-0.02616717084310949,0.1133216517046094,0.06304490752518177,-0.017981281504034996,0.06921212375164032,-0.24041328579187393,-0.13092023879289627,0.035571616142988205,0.03608413413167,0.01624197605997324,0.12138324452098459,0.2094520227983594,-0.10835003852844238,-0.049259379506111145,-0.02616717084310949,0.1133216517046094,0.06304490752518177,-0.017981281504034996,0.06921212375164032,-0.24041328579187393,-0.13092023879289627,0.035571616142988205,0.03608413413167,0.01624197605997324,0.12138324452098459,0.2094520227983594,-0.10835003852844238,-0.049259379506111145,-0.021475731030399015,0.10754909746176002,0.03681553890925526,-0.08436894333371026,0.035281558121369905,-0.268446637879987,-0.1794757521826198,0.03681553890925526,0.05062136600022615,0.021475731030399015,0.11675298218907394,0.1404090112459876,-0.06732471235720326,0.11791198989547642
37.033041841,0.0,0.0,-0.17453292519943295,-0.09053895494720585,-0.7035858547102141,-0.08059403693182735,-0.008161421461450871,-0.9967135959796875,1.0,1.0,0.0,0.07671776931843206,0.15343553863686413,-0.0,0.2301533079552962,0.07671776931843206,0.2301533079552962,-0.07671776931843206,0.07671776931843206,-0.15343553863686413,0.15343553863686413,0.6904599238658886,-0.6904599238658886,0.5370243852290244,-0.11019571870565414,0.008174501359462738,0.1709786206483841,0.04910296946763992,0.44169121980667114,-0.07919664680957794,0.09194162487983704,0.11498232930898666,0.11666896939277649,0.034072358161211014,-0.03429412469267845,0.7500763535499573,-0.2605864703655243,0.07182271778583527,-0.02510546869598329,0.12421667389571667,0.051122235134243965,-0.026994166895747185,0.054572269320487976,-0.22766787186264992,-0.11890985816717148,0.028745582327246666,0.029167242348194122,0.012706879526376724,0.11359951738268137,0.19921279419213533,-0.10441652685403824,-0.03789485618472099,-0.02510546869598329,0.12421667389571667,0.051122235134243965,-0.026994166895747185,0.054572269320487976,-0.22766787186264992,-0.11890985816717148,0.028745582327246666,0.029167242348194122,0.012706879526376724,0.11359951738268137,0.19921279419213533,-0.10441652685403824,-0.03789485618472099,-0.021475731030399015,0.10754909746176002,0.04141748127291223,-0.08436894333371026,0.04141748127291223,-0.26691265709210166,-0.1702718674553063,0.03681553890925526,0.053689327575997314,0.018407769454627854,0.1198209437648451,0.15421483833695848,-0.08113053944817371,0.1286498554106757
37.05307075300004,0.0,0.0,-0.13744467859455345,-0.06763150851478027,-0.842121364087264,-0.0816086515469111,-0.006120648866018333,-0.9966456570166519,1.0,1.0,-0.07671776931843206,-0.0,0.30687107727372825,-0.07671776931843206,0.2301533079552962,0.07671776931843206,0.5370243852290244,0.0,0.07671776931843206,-0.0,0.15343553863686413,0.7671776931843206,-0.5370243852290244,0.5370243852290244,-0.1192300096154213,0.0044495053589344025,0.19187314808368683,0.04903337359428406,0.42454028129577637,-0.05740056931972504,0.10614769160747528,0.11668647080659866,0.11733722686767578,0.033796682953834534,-0.03279511258006096,0.7594568729400635,-0.26976001262664795,0.0903715193271637,-0.02736404142342508,0.12328542489558458,0.05634586699306965,-0.02701156586408615,0.05028453469276428,-0.2222188524901867,-0.11535834148526192,0.029171617701649666,0.029334306716918945,0.012637960724532604,0.11397427041083574,0.20155792403966188,-0.10670991241931915,-0.033257655799388885,-0.02736404142342508,0.12328542489558458,0.05634586699306965,-0.02701156586408615,0.05028453469276428,-0.2222188524901867,-0.11535834148526192,0.029171617701649666,0.029334306716918945,0.012637960724532604,0.11397427041083574,0.20155792403966188,-0.10670991241931915,-0.033257655799388885,-0.023009711818284817,0.10908307824964582,0.05062136600022615,-0.08590292412159606,0.04601942363656919,-0.26691265709210166,-0.15953400194010658,0.03681553890925526,0.05522330836388312,0.018407769454627854,0.1198209437648451,0.17108862700370053,-0.09186840496337344,0.13631975935010382
37.07333351199998,0.0,0.0,-0.13744467859455345,-0.06763150851478027,-0.842121364087264,-0.0816086515469111,-0.006120648866018333,-0.9966456570166519,1.0,0.0,-0.07671776931843206,0.07671776931843206,0.3835888465921603,0.07671776931843206,0.2301533079552962,-0.0,0.6137421545474565,0.0,0.07671776931843206,-0.0,0.0,0.9206132318211848,-0.3835888465921603,0.2301533079552962,-0.13423921167850494,0.02178153768181801,0.18167071044445038,0.046019770205020905,0.38922619819641113,-0.05039805918931961,0.12603859603405,0.12641224265098572,0.12058262526988983,0.03580540791153908,-0.03455732390284538,0.8096434473991394,-0.24949416518211365,0.08997508883476257,-0.03111634193919599,0.12761843297630548,0.053795257583260536,-0.02776496671140194,0.041456013917922974,-0.22046822495758533,-0.11038561537861824,0.03160306066274643,0.030145656317472458,0.01314014196395874,0.11353371758013964,0.21410456765443087,-0.10164345055818558,-0.033356763422489166,-0.03111634193919599,0.12761843297630548,0.053795257583260536,-0.02776496671140194,0.041456013917922974,-0.22046822495758533,-0.11038561537861824,0.03160306066274643,0.030145656317472458,0.01314014196395874,0.11353371758013964,0.21410456765443087,-0.10164345055818558,-0.033356763422489166,-0.026077673394055978,0.11061705903753118,0.05829126993965428,-0.07669903939428213,0.04755340442445499,-0.26691265709210166,-0.1472621556370215,0.035281558121369905,0.05522330836388312,0.018407769454627854,0.1198209437648451,0.18949639645832794,-0.09800432811491576,0.13938772092587542
37.09329503699996,0.0,0.0,-0.25634523388666713,-0.04145156973486533,-0.4145156973486533,-0.08574853303900107,-0.0010208158695119175,-0.9963162886436314,1.0,0.0,-0.07671776931843206,0.07671776931843206,0.30687107727372825,0.4603066159105924,-0.0,0.15343553863686413,0.5370243852290244,-0.07671776931843206,0.0,-0.07671776931843206,0.0,0.6137421545474565,-0.3835888465921603,0.0,-0.1448848694562912,0.015107400715351105,0.15723104774951935,0.05056845396757126,0.3489716053009033,-0.05978322774171829,0.1439741551876068,0.17365145683288574,0.1625300496816635,0.0491531640291214,-0.013812050223350525,0.923452615737915,-0.2534184157848358,0.09526225924491882,-0.033777756383642554,0.12594989873468876,0.04768534190952778,-0.02662779577076435,0.03139236569404602,-0.222814517095685,-0.10590172559022903,0.043412864208221436,0.04063251242041588,0.01647708099335432,0.11872003600001335,0.24255685973912477,-0.10262451320886612,-0.032034970819950104,-0.033777756383642554,0.12594989873468876,0.04768534190952778,-0.02662779577076435,0.03139236569404602,-0.222814517095685,-0.10590172559022903,0.043412864208221436,0.04063251242041588,0.01647708099335432,0.11872003600001335,0.24255685973912477,-0.10262451320886612,-0.032034970819950104,-0.026077673394055978,0.11215103982541698,0.05982525072754008,-0.0674951546669682,0.04755340442445499,-0.2638446955163305,-0.1365242901218222,0.0337475773334841,0.05522330836388312,0.01687378866674205,0.1198209437648451,0.20176824276141303,-0.10414025126645853,0.13478577856221846
37.113446261000036,0.0,0.0,-0.25634523388666713,-0.04145156973486533,-0.4145156973486533,-0.08574853303900107,-0.0010208158695119175,-0.9963162886436314,1.0,0.0,0.0,0.07671776931843206,0.07671776931843206,0.4603066159105924,-0.0,0.2301533079552962,0.5370243852290244,-0.07671776931843206,0.0,-0.15343553863686413,-0.07671776931843206,0.2301533079552962,-0.30687107727372825,-0.30687107727372825,-0.12918730080127716,0.043342869728803635,0.13989296555519104,0.06264480948448181,0.29918769001960754,-0.03391841799020767,0.18136268854141235,0.1542014628648758,0.13002817332744598,0.05381448566913605,-0.010819986462593079,0.9335845112800598,-0.3038279414176941,0.13367727398872375,-0.029853364219889045,0.1330087659880519,0.0433508213609457,-0.023608706891536713,0.018946386873722076,-0.21634831465780735,-0.09655459225177765,0.03855036571621895,0.032507043331861496,0.017642411403357983,0.11946805194020271,0.24508983362466097,-0.11522689461708069,-0.02243121713399887,-0.029853364219889045,0.1330087659880519,0.0433508213609457,-0.023608706891536713,0.018946386873722076,-0.21634831465780735,-0.09655459225177765,0.03855036571621895,0.032507043331861496,0.017642411403357983,0.11946805194020271,0.24508983362466097,-0.11522689461708069,-0.02243121713399887,-0.026077673394055978,0.11215103982541698,0.06135923151542544,-0.05829126993965428,0.04755340442445499,-0.2607767339405589,-0.12732040539450828,0.0322135965455983,0.05522330836388312,0.01380582709097089,0.1182869629769593,0.20637018512507,-0.10874219363011549,0.12558189383490453
37.133470098999965,0.0,0.0,-0.18216874067690814,0.3239767424014474,0.019634954084936207,-0.0785680336287463,0.005101820365503007,-0.9968956994192875,1.0,0.0,0.0,-0.0,0.07671776931843206,0.4603066159105924,-0.0,0.2301533079552962,0.3835888465921603,-0.07671776931843206,-0.07671776931843206,-0.0,0.0,0.0,-0.07671776931843206,-0.5370243852290244,-0.17253677546977997,0.07282602787017822,-0.0003785453736782074,0.013868853449821472,0.14004644751548767,0.03792312741279602,0.24331656098365784,0.16199155151844025,0.07424037158489227,0.014402315020561218,-0.024570129811763763,0.9194357991218567,-0.29136013984680176,0.24381187558174133,-0.04069073288701475,0.14037955552339554,0.00828294362872839,-0.0358026959002018,-0.020838923752307892,-0.19838792830705643,-0.08106612414121628,0.04049788787961006,0.018560092896223068,0.007789368741214275,0.11603051610291004,0.2415526555851102,-0.1121099442243576,0.005102433264255524,-0.04069073288701475,0.14037955552339554,0.00828294362872839,-0.0358026959002018,-0.020838923752307892,-0.19838792830705643,-0.08106612414121628,0.04049788787961006,0.018560092896223068,0.007789368741214275,0.11603051610291004,0.2415526555851102,-0.1121099442243576,0.005102433264255524,-0.026077673394055978,0.11215103982541698,0.06289321230331124,-0.05062136600022615,0.04755340442445499,-0.25464081078901657,-0.11965050145508016,0.03067961575771294,0.053689327575997314,0.01380582709097089,0.1182869629769593,0.20637018512507,-0.10874219363011549,0.11024208595604786
37.15347960400004,0.0,0.0,-0.284706834231575,0.3785182815262702,0.19525871006686563,-0.0703735492227709,0.010199065104749406,-0.9974685672444918,1.0,1.0,0.0,-0.0,-0.0,0.3835888465921603,-0.07671776931843206,0.3835888465921603,0.30687107727372825,-0.07671776931843206,-0.07671776931843206,-0.0,0.0,0.0,0.0,-0.7671776931843206,-0.1659005880355835,0.05582229420542717,-0.01628972217440605,0.008722007274627686,0.07188288867473602,0.06487482041120529,0.2594054043292999,0.16893406212329865,0.07522723078727722,0.003286793828010559,0.0034269564785063267,0.931182861328125,-0.3147442042827606,0.308393269777298,-0.03903168602846563,0.13612862210720778,0.004305149428546429,-0.037089407444000244,-0.037879813462495804,-0.1916500050574541,-0.07704391330480576,0.04223351553082466,0.018806807696819305,0.0050104884430766106,0.12302978767547756,0.24448942113667727,-0.11795596033334732,0.021247781813144684,-0.03903168602846563,0.13612862210720778,0.004305149428546429,-0.037089407444000244,-0.037879813462495804,-0.1916500050574541,-0.07704391330480576,0.04223351553082466,0.018806807696819305,0.0050104884430766106,0.12302978767547756,0.24448942113667727,-0.11795596033334732,0.021247781813144684,-0.026077673394055978,0.11061705903753118,0.06289321230331124,-0.04448544284868339,0.04601942363656919,-0.24697090684958845,-0.1135145783035374,0.03067961575771294,0.052155346788111956,0.01380582709097089,0.1182869629769593,0.20637018512507,-0.10874219363011549,0.09183431650142045
37.173755177999965,0.0,0.0,-0.2999784651865254,0.31852258848896514,0.32506757318394386,-0.06427537510743772,0.016323904789190533,-0.9977986802392713,1.0,1.0,0.0,-0.07671776931843206,0.07671776931843206,0.2301533079552962,-0.15343553863686413,0.3835888465921603,0.3835888465921603,0.0,-0.07671776931843206,-0.07671776931843206,0.0,0.0,0.0,-0.9206132318211848,-0.16353647410869598,0.06014527007937431,-0.004876887425780296,0.0046193525195121765,0.05296389013528824,0.08173687011003494,0.26840299367904663,0.15590521693229675,0.0673593133687973,-0.002341042272746563,0.008873935788869858,0.9313697814941406,-0.3345620930194855,0.3073871433734894,-0.03844065754674375,0.13720936607569456,0.0071583581157028675,-0.03811507113277912,-0.04260956309735775,-0.1874344926327467,-0.07479451596736908,0.03897630423307419,0.016839828342199326,0.00360352941788733,0.12439153250306845,0.24453615117818117,-0.12291043251752853,0.020996250212192535,-0.03844065754674375,0.13720936607569456,0.0071583581157028675,-0.03811507113277912,-0.04260956309735775,-0.1874344926327467,-0.07479451596736908,0.03897630423307419,0.016839828342199326,0.00360352941788733,0.12439153250306845,0.24453615117818117,-0.12291043251752853,0.020996250212192535,-0.026077673394055978,0.11061705903753118,0.0659611738790824,-0.04141748127291223,0.03988350048502687,-0.23930100291015988,-0.10584467436410927,0.02914563496982714,0.04908738521234035,0.012271846303085088,0.11675298218907394,0.20637018512507,-0.10874219363011549,0.07189256625890723
37.19374699800005,0.0,0.0,-0.2399827721492203,0.29561514205653955,0.38724492778624187,-0.05816880747547933,0.022451118674746407,-0.9980542756319083,1.0,1.0,0.0,-0.0,-0.0,0.2301533079552962,-0.3835888465921603,0.5370243852290244,0.4603066159105924,-0.07671776931843206,-0.2301533079552962,-0.0,0.0,0.2301533079552962,0.0,-1.0740487704580488,-0.1592990756034851,0.050926823168992996,-0.008495373651385307,0.001107916235923767,0.044359344989061356,0.11716871708631516,0.2972685992717743,0.14597533643245697,0.03994512930512428,-0.015952428802847862,-0.008418017998337746,0.9252522587776184,-0.3488382399082184,0.27608269453048706,-0.03738130792044103,0.13490475434809923,0.006253736559301615,-0.038992930203676224,-0.04476069938391447,-0.17857653088867664,-0.06757811456918716,0.03649383410811424,0.00998628232628107,0.00020068278536200523,0.12006854405626655,0.24300677049905062,-0.12647946923971176,0.013170138001441956,-0.03738130792044103,0.13490475434809923,0.006253736559301615,-0.038992930203676224,-0.04476069938391447,-0.17857653088867664,-0.06757811456918716,0.03649383410811424,0.00998628232628107,0.00020068278536200523,0.12006854405626655,0.24300677049905062,-0.12647946923971176,0.013170138001441956,-0.026077673394055978,0.11061705903753118,0.05982525072754008,-0.03681553890925526,0.03067961575771294,-0.2285631373949606,-0.09203884727313838,0.02914563496982714,0.04448544284868339,0.012271846303085088,0.11675298218907394,0.21097212748872696,-0.11027617441800129,0.04888285444062242
37.213733873000024,0.0,0.0,-0.019634954084936207,0.2617993877991494,0.33052172709642613,-0.05308010212286974,0.02347773747742315,-0.9983142283878191,1.0,1.0,-0.07671776931843206,-0.0,-0.3835888465921603,0.2301533079552962,-0.5370243852290244,0.8438954625027527,0.6137421545474565,0.0,-0.2301533079552962,-0.0,0.0,0.3835888465921603,-0.07671776931843206,-1.150766539776481,-0.15881139039993286,0.035623833537101746,0.007181096822023392,-0.015492022037506104,0.04968364164233208,0.16327932476997375,0.33337852358818054,0.11242686957120895,-0.0316472090780735,-0.031076984480023384,-0.07363373041152954,0.819791853427887,-0.31771737337112427,0.17948313057422638,-0.03725938661955297,0.13107900694012642,0.01017285417765379,-0.04314291477203369,-0.04342962522059679,-0.167048878967762,-0.0585506334900856,0.02810671739280224,-0.007911802269518375,-0.0035804561339318752,0.1037646159529686,0.21664166916161776,-0.11869925260543823,-0.010979752987623215,-0.03725938661955297,0.13107900694012642,0.01017285417765379,-0.04314291477203369,-0.04342962522059679,-0.167048878967762,-0.0585506334900856,0.02810671739280224,-0.007911802269518375,-0.0035804561339318752,0.1037646159529686,0.21664166916161776,-0.11869925260543823,-0.010979752987623215,-0.02914563496982714,0.11061705903753118,0.052155346788111956,-0.03067961575771294,0.021475731030399015,-0.21168934872821854,-0.08283496254582445,0.02914563496982714,0.03988350048502687,0.012271846303085088,0.11675298218907394,0.21864203142815508,-0.11181015520588665,0.027407123410223402
37.23384835699994,0.0,0.0,0.025089107997418487,0.2650718801466388,0.3643374813538163,-0.04793974516258,0.02345987529232638,-0.9985746917907621,1.0,1.0,-0.2301533079552962,-0.0,-0.3835888465921603,0.2301533079552962,-0.30687107727372825,0.6904599238658886,0.4603066159105924,0.0,-0.15343553863686413,-0.0,-0.07671776931843206,0.3835888465921603,-0.2301533079552962,-1.0740487704580488,-0.16175580024719238,0.002086326479911804,-0.0022507943212985992,-0.061143890023231506,0.03222635015845299,0.20535296201705933,0.3611855208873749,0.11251214891672134,-0.043363846838474274,-0.03487925976514816,-0.11226414889097214,0.7303473949432373,-0.264591783285141,0.10376652330160141,-0.03799548908136785,0.12269463017582893,0.007814881391823292,-0.05455588176846504,-0.04779394809156656,-0.1565304696559906,-0.05159888416528702,0.028128037229180336,-0.010840961709618568,-0.00453102495521307,0.09410701133310795,0.19428055454045534,-0.10541785508394241,-0.029908904805779457,-0.03799548908136785,0.12269463017582893,0.007814881391823292,-0.05455588176846504,-0.04779394809156656,-0.1565304696559906,-0.05159888416528702,0.028128037229180336,-0.010840961709618568,-0.00453102495521307,0.09410701133310795,0.19428055454045534,-0.10541785508394241,-0.029908904805779457,-0.0337475773334841,0.11061705903753118,0.04601942363656919,-0.02914563496982714,0.01380582709097089,-0.19788352163724765,-0.07363107781851097,0.03067961575771294,0.038349519697141066,0.012271846303085088,0.11521900140118814,0.22631193536758365,-0.11794607835742942,0.00746537316771019
37.25387960299997,0.0,0.0,-0.030543261909900768,0.25743606466916363,0.3916082509162277,-0.04284864446337095,0.02448493969335483,-0.9987814983247659,1.0,1.0,-0.2301533079552962,-0.0,-0.2301533079552962,0.07671776931843206,-0.4603066159105924,0.6137421545474565,0.3835888465921603,0.07671776931843206,-0.07671776931843206,-0.07671776931843206,-0.15343553863686413,0.30687107727372825,-0.2301533079552962,-0.9206132318211848,-0.17645588517189026,-0.013710040599107742,0.02575043961405754,-0.061556845903396606,0.027113299816846848,0.23400229215621948,0.36530619859695435,0.11779693514108658,-0.05113433301448822,-0.043060608208179474,-0.12212950736284256,0.6970192790031433,-0.2363421618938446,0.08409110456705093,-0.04167051031254232,0.11874553840607405,0.014815189875662327,-0.05465912073850632,-0.0490722106769681,-0.14936813712120056,-0.05056871473789215,0.029449233785271645,-0.012783583253622055,-0.006576362065970898,0.09164067171514034,0.18594852555543184,-0.09835544973611832,-0.034827759489417076,-0.04167051031254232,0.11874553840607405,0.014815189875662327,-0.05465912073850632,-0.0490722106769681,-0.14936813712120056,-0.05056871473789215,0.029449233785271645,-0.012783583253622055,-0.006576362065970898,0.09164067171514034,0.18594852555543184,-0.09835544973611832,-0.034827759489417076,-0.03988350048502687,0.11215103982541698,0.04448544284868339,-0.027611654181941336,0.004601942363656963,-0.18561167533416256,-0.0659611738790824,0.0322135965455983,0.03681553890925526,0.010737865515199285,0.11368502061330234,0.23244785851912597,-0.12408200150897174,-0.00940841549903186
37.27399138299995,0.0,0.0,0.02181661564992912,0.2748893571891069,0.44833145160604343,-0.0367363578381486,0.024490905225432402,-0.9990248423207635,1.0,1.0,-0.15343553863686413,0.07671776931843206,-0.0,0.07671776931843206,-0.3835888465921603,0.6904599238658886,0.4603066159105924,0.07671776931843206,-0.15343553863686413,-0.15343553863686413,-0.07671776931843206,0.30687107727372825,-0.30687107727372825,-0.8438954625027527,-0.17613667249679565,-0.02207270637154579,0.04501662030816078,-0.05407397449016571,0.046791430562734604,0.2588196098804474,0.3711310625076294,0.1284673511981964,-0.06474961340427399,-0.05772852152585983,-0.1318349540233612,0.6328097581863403,-0.21690943837165833,0.05806846171617508,-0.04159070714376867,0.11665487196296453,0.019631735049188137,-0.05278840288519859,-0.04415267799049616,-0.14316380769014359,-0.04911249876022339,0.0321168377995491,-0.016187403351068497,-0.010243340395390987,0.08921431005001068,0.1698961453512311,-0.09349726885557175,-0.04133342020213604,-0.04159070714376867,0.11665487196296453,0.019631735049188137,-0.05278840288519859,-0.04415267799049616,-0.14316380769014359,-0.04911249876022339,0.0321168377995491,-0.016187403351068497,-0.010243340395390987,0.08921431005001068,0.1698961453512311,-0.09349726885557175,-0.04133342020213604,-0.04141748127291223,0.11368502061330234,0.04448544284868339,-0.027611654181941336,-0.0015339807878858025,-0.17180584824319167,-0.05675728915176892,0.0322135965455983,0.0322135965455983,0.007669903939428124,0.11061705903753118,0.23858378167066874,-0.12714996308474336,-0.024748223377888554
37.29405253499999,0.0,0.0,-0.05672320068981571,0.1559888018969932,0.3763366199612773,-0.03367687090947559,0.026533292231708038,-0.9990805036477758,1.0,1.0,-0.15343553863686413,0.07671776931843206,-0.0,-0.0,-0.30687107727372825,0.6904599238658886,0.4603066159105924,0.0,-0.30687107727372825,-0.07671776931843206,-0.30687107727372825,0.0,-0.15343553863686413,-0.6904599238658886,-0.1874302625656128,-0.023555170744657516,0.05017174407839775,-0.03818581998348236,0.04616439342498779,0.2939332127571106,0.3686886727809906,0.11408505588769913,-0.07136765122413635,-0.07518958300352097,-0.13943670690059662,0.6070191860198975,-0.18484172224998474,0.038265250623226166,-0.04441410466097295,0.1162842558696866,0.02092051599174738,-0.048816364258527756,-0.04430943727493286,-0.13438540697097778,-0.04972309619188309,0.028521263971924782,-0.017841912806034088,-0.01460860576480627,0.08731387183070183,0.16344850230962038,-0.08548033982515335,-0.04628422297537327,-0.04441410466097295,0.1162842558696866,0.02092051599174738,-0.048816364258527756,-0.04430943727493286,-0.13438540697097778,-0.04972309619188309,0.028521263971924782,-0.017841912806034088,-0.01460860576480627,0.08731387183070183,0.16344850230962038,-0.08548033982515335,-0.04628422297537327,-0.04448544284868339,0.11521900140118814,0.04448544284868339,-0.026077673394055978,-0.006135923151542766,-0.15646604036433542,-0.04601942363656919,0.0322135965455983,0.026077673394055978,0.006135923151542766,0.10448113588598885,0.23858378167066874,-0.12868394387262871,-0.03548608889308784
37.314149464000025,0.0,0.0,-0.05672320068981571,0.1559888018969932,0.3763366199612773,-0.03367687090947559,0.026533292231708038,-0.9990805036477758,1.0,1.0,-0.07671776931843206,0.07671776931843206,-0.0,0.07671776931843206,-0.15343553863686413,0.6904599238658886,0.4603066159105924,0.0,-0.30687107727372825,-0.2301533079552962,-0.3835888465921603,-0.07671776931843206,0.0,-0.4603066159105924,-0.1871138960123062,-0.031831469386816025,0.0625971257686615,-0.0369642972946167,0.04550584778189659,0.319457471370697,0.3744819462299347,0.09769852459430695,-0.07757623493671417,-0.0774165540933609,-0.15231262147426605,0.5531105995178223,-0.16947409510612488,0.024441227316856384,-0.04433501302264631,0.11421518120914698,0.024026861414313316,-0.04851098358631134,-0.04447407368570566,-0.12800434231758118,-0.048274777829647064,0.024424631148576736,-0.019394058734178543,-0.015165348537266254,0.08409489318728447,0.14997135568410158,-0.08163843303918839,-0.049740228801965714,-0.04433501302264631,0.11421518120914698,0.024026861414313316,-0.04851098358631134,-0.04447407368570566,-0.12800434231758118,-0.048274777829647064,0.024424631148576736,-0.019394058734178543,-0.015165348537266254,0.08409489318728447,0.14997135568410158,-0.08163843303918839,-0.049740228801965714,-0.04601942363656919,0.11521900140118814,0.04448544284868339,-0.026077673394055978,-0.009203884727313927,-0.14419419406125034,-0.038349519697141066,0.0322135965455983,0.018407769454627854,0.0015339807878858025,0.09681123194656029,0.23704980088278294,-0.12868394387262871,-0.041622012044630605
37.334204709000005,0.0,0.0,0.032724923474893676,0.09708393964218458,0.24870941840919197,-0.02960019032033257,0.02449670923062006,-0.9992615973657101,1.0,1.0,-0.07671776931843206,-0.0,-0.0,-0.0,-0.07671776931843206,0.5370243852290244,0.3835888465921603,0.0,-0.3835888465921603,-0.2301533079552962,-0.4603066159105924,-0.2301533079552962,0.0,-0.30687107727372825,-0.1786283403635025,-0.027033280581235886,0.10191462934017181,-0.03911827504634857,0.0853591188788414,0.32904675602912903,0.3702441155910492,0.09045761078596115,-0.06335918605327606,-0.06645546853542328,-0.14724183082580566,0.47903066873550415,-0.1394553780555725,-0.014524221420288086,-0.04221362411044538,0.11541472841054201,0.033856237307190895,-0.04904947802424431,-0.03451075591146946,-0.12560702115297318,-0.04933423548936844,0.022614402696490288,-0.015839796513319016,-0.012425077147781849,0.08536259084939957,0.13145137298852205,-0.07413375377655029,-0.05948159098625183,-0.04221362411044538,0.11541472841054201,0.033856237307190895,-0.04904947802424431,-0.03451075591146946,-0.12560702115297318,-0.04933423548936844,0.022614402696490288,-0.015839796513319016,-0.012425077147781849,0.08536259084939957,0.13145137298852205,-0.07413375377655029,-0.05948159098625183,-0.04755340442445499,0.11675298218907394,0.04448544284868339,-0.026077673394055978,-0.010737865515199285,-0.13192234775816525,-0.035281558121369905,0.0337475773334841,0.009203884727313927,-0.003067961575771161,0.08914132800713216,0.23244785851912597,-0.12714996308474336,-0.047757935196172926
37.354309082999976,0.0,0.0,0.07635815477475191,0.09599310885968812,0.11344640137963143,-0.027532993975684098,0.023454031905212377,-0.9993457072655709,1.0,1.0,-0.07671776931843206,0.07671776931843206,-0.0,-0.0,-0.07671776931843206,0.4603066159105924,0.15343553863686413,0.07671776931843206,-0.4603066159105924,-0.15343553863686413,-0.30687107727372825,-0.5370243852290244,0.15343553863686413,-0.2301533079552962,-0.1764875054359436,-0.032669853419065475,0.12677206099033356,-0.045351818203926086,0.13284873962402344,0.3360576629638672,0.351385235786438,0.0810370072722435,-0.049369484186172485,-0.052729975432157516,-0.14009033143520355,0.4205583333969116,-0.09952270984649658,-0.020238667726516724,-0.041678415378555655,0.11400558520108461,0.04007059521973133,-0.05060786381363869,-0.02263835072517395,-0.12385429441928864,-0.05404895544052124,0.020259251818060875,-0.012342371046543121,-0.008993703871965408,0.0871504656970501,0.11683328915387392,-0.06415058672428131,-0.06091020256280899,-0.041678415378555655,0.11400558520108461,0.04007059521973133,-0.05060786381363869,-0.02263835072517395,-0.12385429441928864,-0.05404895544052124,0.020259251818060875,-0.012342371046543121,-0.008993703871965408,0.0871504656970501,0.11683328915387392,-0.06415058672428131,-0.06091020256280899,-0.04755340442445499,0.11675298218907394,0.04448544284868339,-0.026077673394055978,-0.010737865515199285,-0.12425244381873712,-0.0337475773334841,0.0337475773334841,0.0015339807878858025,-0.006135923151542766,0.08147142406770404,0.2217099930039267,-0.12101403993320058,-0.05082589677194409
37.37432784600003,0.0,0.0,0.02181661564992912,0.08944812416470939,0.014180800172453928,-0.02651398410270272,0.02345467824469856,-0.9993732469480255,1.0,1.0,0.0,-0.0,-0.0,-0.0,-0.0,0.2301533079552962,-0.0,0.0,-0.3835888465921603,-0.15343553863686413,-0.15343553863686413,-0.6137421545474565,0.3835888465921603,-0.15343553863686413,-0.18761643767356873,-0.031688790768384933,0.1334547996520996,-0.04447855055332184,0.15856023132801056,0.34425196051597595,0.3173132836818695,0.07220660150051117,-0.04657093062996864,-0.057694222778081894,-0.13700619339942932,0.39037683606147766,-0.055397287011146545,-0.01020464301109314,-0.044460648437961936,0.11425085086375475,0.041741279885172844,-0.050389546900987625,-0.01621047779917717,-0.12180572003126144,-0.06256694346666336,0.018051650375127792,-0.01164273265749216,-0.010234765708446503,0.08792150020599365,0.10928791482001543,-0.0531192310154438,-0.058401696383953094,-0.044460648437961936,0.11425085086375475,0.041741279885172844,-0.050389546900987625,-0.01621047779917717,-0.12180572003126144,-0.06256694346666336,0.018051650375127792,-0.01164273265749216,-0.010234765708446503,0.08792150020599365,0.10928791482001543,-0.0531192310154438,-0.058401696383953094,-0.04755340442445499,0.11675298218907394,0.04448544284868339,-0.026077673394055978,-0.010737865515199285,-0.11965050145508016,-0.0337475773334841,0.0337475773334841,-0.004601942363656963,-0.009203884727313927,0.07840346249193288,0.2094381467008416,-0.11181015520588665,-0.05389385834771569
37.394403646,0.0,0.0,-0.02181661564992912,0.04036073895236887,-0.04799655442984406,-0.025494891570072266,0.023455300244466484,-0.9993997495468329,1.0,1.0,0.0,-0.0,-0.0,-0.0,-0.0,0.15343553863686413,-0.0,0.0,-0.15343553863686413,-0.0,0.0,-0.6137421545474565,0.4603066159105924,-0.15343553863686413,-0.19122156500816345,-0.018467728048563004,0.1457015424966812,-0.024170801043510437,0.17271053791046143,0.35151779651641846,0.29227563738822937,0.024553561583161354,-0.057692669332027435,-0.07247478514909744,-0.13755784928798676,0.38279837369918823,-0.02933134138584137,0.0016796141862869263,-0.04536193027161062,0.11755611654371023,0.044802965596318245,-0.045312609523534775,-0.012672901153564453,-0.11998926103115082,-0.0688263550400734,0.0061383903957903385,-0.014423167333006859,-0.01392990630120039,0.0877835862338543,0.10739329922944307,-0.04660274460911751,-0.05543063208460808,-0.04536193027161062,0.11755611654371023,0.044802965596318245,-0.045312609523534775,-0.012672901153564453,-0.11998926103115082,-0.0688263550400734,0.0061383903957903385,-0.014423167333006859,-0.01392990630120039,0.0877835862338543,0.10739329922944307,-0.04660274460911751,-0.05543063208460808,-0.04755340442445499,0.11675298218907394,0.04448544284868339,-0.026077673394055978,-0.010737865515199285,-0.11658253987930856,-0.0337475773334841,0.03067961575771294,-0.007669903939428124,-0.009203884727313927,0.07840346249193288,0.1956323196098707,-0.10107228969068736,-0.05542783913560105
37.41449113099998,0.0,0.0,-0.02181661564992912,0.04036073895236887,-0.04799655442984406,-0.025494891570072266,0.023455300244466484,-0.9993997495468329,1.0,1.0,0.0,-0.0,-0.0,-0.0,-0.0,0.15343553863686413,-0.0,-0.15343553863686413,-0.15343553863686413,-0.0,0.0,-0.7671776931843206,0.6137421545474565,-0.07671776931843206,-0.1913151741027832,-0.008853714913129807,0.14120440185070038,-0.0163203626871109,0.17218327522277832,0.36693206429481506,0.27454137802124023,0.006427055224776268,-0.05839214473962784,-0.08416301012039185,-0.13141101598739624,0.3727205991744995,-0.012485623359680176,0.0005695074796676636,-0.045385332545265555,0.11995961982756853,0.043678680434823036,-0.04334999993443489,-0.01280471682548523,-0.11613569408655167,-0.07325991988182068,0.001606763806194067,-0.01459803618490696,-0.01685196254402399,0.08932029455900192,0.1048738555982709,-0.04239131510257721,-0.055708158761262894,-0.045385332545265555,0.11995961982756853,0.043678680434823036,-0.04334999993443489,-0.01280471682548523,-0.11613569408655167,-0.07325991988182068,0.001606763806194067,-0.01459803618490696,-0.01685196254402399,0.08932029455900192,0.1048738555982709,-0.04239131510257721,-0.055708158761262894,-0.04755340442445499,0.11675298218907394,0.04448544284868339,-0.026077673394055978,-0.010737865515199285,-0.1135145783035374,-0.0337475773334841,0.027611654181941336,-0.009203884727313927,-0.009203884727313927,0.07840346249193288,0.18182649251889982,-0.08726646259971647,-0.058495800711372656
37.434811223,0.0,0.0,0.04799655442984406,0.044724062082354694,-0.09053895494720585,-0.02345702014844411,0.02243714970720741,-0.9994730324119665,1.0,1.0,0.0,-0.0,-0.0,-0.07671776931843206,-0.0,0.07671776931843206,-0.0,-0.2301533079552962,0.0,-0.0,0.0,-0.6137421545474565,0.6137421545474565,-0.07671776931843206,-0.1829165816307068,-0.01432282105088234,0.14709943532943726,-0.022160813212394714,0.18336984515190125,0.3728249669075012,0.2608451247215271,-0.0251019224524498,-0.048689939081668854,-0.07238511741161346,-0.11210091412067413,0.3354157507419586,0.0056671202182769775,0.001491636037826538,-0.04328568442724645,0.1185923432931304,0.045152438804507256,-0.044810112565755844,-0.010008074343204498,-0.11466246843338013,-0.07668398320674896,-0.00627548061311245,-0.012172484770417213,-0.013907489366829395,0.09414782002568245,0.09554764349013567,-0.03785312920808792,-0.055477626621723175,-0.04328568442724645,0.1185923432931304,0.045152438804507256,-0.044810112565755844,-0.010008074343204498,-0.11466246843338013,-0.07668398320674896,-0.00627548061311245,-0.012172484770417213,-0.013907489366829395,0.09414782002568245,0.09554764349013567,-0.03785312920808792,-0.055477626621723175,-0.04755340442445499,0.11675298218907394,0.04448544284868339,-0.027611654181941336,-0.010737865515199285,-0.11198059751565159,-0.0337475773334841,0.021475731030399015,-0.010737865515199285,-0.009203884727313927,0.07840346249193288,0.16802066542792893,-0.07499461629663139,-0.060029781499258014
37.455187980000005,0.0,0.0,0.06981317007977318,0.00545415391248228,-0.016362461737446838,-0.02345754473345713,0.021417758234895636,-0.9994953842951299,1.0,1.0,0.0,-0.0,-0.0,-0.0,-0.0,0.07671776931843206,-0.0,-0.30687107727372825,-0.07671776931843206,-0.0,0.0,-0.6137421545474565,0.6137421545474565,-0.07671776931843206,-0.17889049649238586,-0.004251234233379364,0.15543557703495026,-0.019422635436058044,0.20370423793792725,0.37290748953819275,0.25337404012680054,-0.053495459258556366,-0.0481804758310318,-0.07688312977552414,-0.10210500657558441,0.3291879892349243,0.022373303771018982,0.00041165947914123535,-0.04227916314266622,0.12111023999750614,0.047236474230885506,-0.04412556812167168,-0.004924476146697998,-0.11464183777570724,-0.0785517543554306,-0.013373864814639091,-0.01204511895775795,-0.015031992457807064,0.09664679691195488,0.0939907031133771,-0.03367658331990242,-0.0557476207613945,-0.04227916314266622,0.12111023999750614,0.047236474230885506,-0.04412556812167168,-0.004924476146697998,-0.11464183777570724,-0.0785517543554306,-0.013373864814639091,-0.01204511895775795,-0.015031992457807064,0.09664679691195488,0.0939907031133771,-0.03367658331990242,-0.0557476207613945,-0.04755340442445499,0.11675298218907394,0.04601942363656919,-0.027611654181941336,-0.010737865515199285,-0.11044661672776623,-0.0337475773334841,0.015339807878856249,-0.010737865515199285,-0.009203884727313927,0.07840346249193288,0.15728279991272964,-0.06425675078143166,-0.06156376228714382
37.474923915999966,0.0,0.0,0.011999138607461015,-0.09272061651219876,0.05235987755982989,-0.025496601911856175,0.020397281529484942,-0.9994667949447621,1.0,1.0,0.0,-0.0,0.15343553863686413,-0.0,0.07671776931843206,0.07671776931843206,-0.0,-0.3835888465921603,0.0,-0.0,0.0,-0.5370243852290244,0.5370243852290244,0.0,-0.17981676757335663,0.004725106060504913,0.16042976081371307,-0.0075428783893585205,0.2085961401462555,0.37378448247909546,0.2539740204811096,-0.08912904560565948,-0.05535632371902466,-0.08306853473186493,-0.10518952459096909,0.3135770857334137,0.03713999688625336,0.015227057039737701,-0.04251073091290891,0.12335432507097721,0.04848502017557621,-0.041155628859996796,-0.0037015005946159363,-0.11442258954048157,-0.07840175926685333,-0.02228226140141487,-0.013839080929756165,-0.01657834369689226,0.09587566740810871,0.09008797723799944,-0.029984910041093826,-0.052043771371245384,-0.04251073091290891,0.12335432507097721,0.04848502017557621,-0.041155628859996796,-0.0037015005946159363,-0.11442258954048157,-0.07840175926685333,-0.02228226140141487,-0.013839080929756165,-0.01657834369689226,0.09587566740810871,0.09008797723799944,-0.029984910041093826,-0.052043771371245384,-0.04908738521234035,0.11675298218907394,0.04755340442445499,-0.027611654181941336,-0.007669903939428124,-0.10737865515199507,-0.0337475773334841,0.009203884727313927,-0.010737865515199285,-0.009203884727313927,0.07840346249193288,0.14501095360964456,-0.05658684684200353,-0.06156376228714382
37.49503086300001,0.0,0.0,0.1265363707695889,-0.11671889372712078,0.18980455615438332,-0.028554961590293543,0.018356761022331563,-0.999423655660274,1.0,1.0,-0.07671776931843206,-0.0,0.07671776931843206,-0.0,0.15343553863686413,0.15343553863686413,-0.0,-0.30687107727372825,0.0,-0.0,0.0,-0.4603066159105924,0.3835888465921603,0.0,-0.17898669838905334,-0.004607122391462326,0.17252950370311737,-0.019535571336746216,0.22547021508216858,0.37299099564552307,0.2600885331630707,-0.09555888175964355,-0.04962915927171707,-0.07646814733743668,-0.08975877612829208,0.2954162657260895,0.046570323407649994,0.014853030443191528,-0.04230321361683309,0.1210212679579854,0.051509955897927284,-0.04415380209684372,0.0005170181393623352,-0.11462096124887466,-0.07687313109636307,-0.02388972043991089,-0.012407289817929268,-0.014928246848285198,0.09973335452377796,0.08554777223616838,-0.027627328410744667,-0.05213727802038193,-0.04230321361683309,0.1210212679579854,0.051509955897927284,-0.04415380209684372,0.0005170181393623352,-0.11462096124887466,-0.07687313109636307,-0.02388972043991089,-0.012407289817929268,-0.014928246848285198,0.09973335452377796,0.08554777223616838,-0.027627328410744667,-0.05213727802038193,-0.04908738521234035,0.11675298218907394,0.05062136600022615,-0.027611654181941336,-0.003067961575771161,-0.10584467436410927,-0.0337475773334841,0.003067961575771161,-0.010737865515199285,-0.009203884727313927,0.07840346249193288,0.13734104967021643,-0.04891694290257541,-0.06156376228714382
37.515153088000034,0.0,0.0,0.1265363707695889,-0.11671889372712078,0.18980455615438332,-0.028554961590293543,0.018356761022331563,-0.999423655660274,1.0,1.0,0.0,0.07671776931843206,0.07671776931843206,-0.0,0.2301533079552962,-0.0,-0.0,-0.15343553863686413,0.07671776931843206,-0.0,0.0,-0.30687107727372825,0.30687107727372825,0.0,-0.17678233981132507,0.0025464557111263275,0.16762441396713257,-0.029934868216514587,0.22600683569908142,0.374169260263443,0.2647254765033722,-0.09987105429172516,-0.04512585699558258,-0.0726935863494873,-0.0896628201007843,0.2776830196380615,0.054235637187957764,0.010601349174976349,-0.04175212397240102,0.12280966248363256,0.050283683463931084,-0.04675362631678581,0.0006511732935905457,-0.11432639509439468,-0.07571389526128769,-0.02496776357293129,-0.011281464248895645,-0.013984606601297855,0.09975734353065491,0.0811144607141614,-0.025710999965667725,-0.05320019833743572,-0.04175212397240102,0.12280966248363256,0.050283683463931084,-0.04675362631678581,0.0006511732935905457,-0.11432639509439468,-0.07571389526128769,-0.02496776357293129,-0.011281464248895645,-0.013984606601297855,0.09975734353065491,0.0811144607141614,-0.025710999965667725,-0.05320019833743572,-0.04908738521234035,0.1182869629769593,0.052155346788111956,-0.027611654181941336,0.0015339807878858025,-0.10584467436410927,-0.035281558121369905,0.0,-0.007669903939428124,-0.009203884727313927,0.07840346249193288,0.12967114573078786,-0.044315000538918445,-0.06156376228714382
37.53515324099999,0.0,0.0,0.06217735460229799,-0.136353847812057,0.16035212502697901,-0.0336847825561528,0.015311264798251272,-0.9993152158325331,1.0,1.0,0.0,-0.0,0.07671776931843206,-0.07671776931843206,0.2301533079552962,-0.0,-0.07671776931843206,-0.2301533079552962,0.15343553863686413,-0.0,0.0,-0.3835888465921603,0.2301533079552962,0.0,-0.17837676405906677,0.011303137987852097,0.1634179800748825,-0.017265930771827698,0.2354140430688858,0.36221611499786377,0.26949751377105713,-0.1042771115899086,-0.04482307285070419,-0.08412472158670425,-0.09368643164634705,0.28366339206695557,0.06633935868740082,0.020005643367767334,-0.04215073003433645,0.124998833052814,0.04923207499086857,-0.04358639195561409,0.0030029751360416412,-0.11731468141078949,-0.07452088594436646,-0.02606927789747715,-0.011205768212676048,-0.016842390410602093,0.09875144064426422,0.0826095538213849,-0.02268506959080696,-0.050849124789237976,-0.04215073003433645,0.124998833052814,0.04923207499086857,-0.04358639195561409,0.0030029751360416412,-0.11731468141078949,-0.07452088594436646,-0.02606927789747715,-0.011205768212676048,-0.016842390410602093,0.09875144064426422,0.0826095538213849,-0.02268506959080696,-0.050849124789237976,-0.05062136600022615,0.1198209437648451,0.052155346788111956,-0.027611654181941336,0.006135923151542766,-0.10584467436410927,-0.038349519697141066,-0.006135923151542766,-0.006135923151542766,-0.009203884727313927,0.07840346249193288,0.12353522257924554,-0.03817907738737612,-0.06156376228714382
37.555224819000045,0.0,0.0,0.025089107997418487,-0.10799224746714914,0.07635815477475191,-0.03470432221845348,0.01531073039049418,-0.999280336819587,1.0,1.0,-0.07671776931843206,0.07671776931843206,-0.0,-0.0,0.15343553863686413,-0.0,-0.2301533079552962,-0.30687107727372825,0.07671776931843206,-0.0,0.0,-0.2301533079552962,0.30687107727372825,0.0,-0.1782064586877823,0.009416420012712479,0.15779775381088257,-0.0016225427389144897,0.23021401464939117,0.3590657413005829,0.27169570326805115,-0.1325356811285019,-0.039603378623723984,-0.08440563082695007,-0.09381889551877975,0.27092111110687256,0.0662057027220726,0.028534002602100372,-0.042108153691515326,0.1245271535590291,0.047827018424868584,-0.03967554494738579,0.001702968031167984,-0.11810227483510971,-0.07397133857011795,-0.03313392028212547,-0.009900844655930996,-0.016912617720663548,0.09871832467615604,0.07942398358136415,-0.022718483582139015,-0.048717034980654716,-0.042108153691515326,0.1245271535590291,0.047827018424868584,-0.03967554494738579,0.001702968031167984,-0.11810227483510971,-0.07397133857011795,-0.03313392028212547,-0.009900844655930996,-0.016912617720663548,0.09871832467615604,0.07942398358136415,-0.022718483582139015,-0.048717034980654716,-0.05062136600022615,0.1198209437648451,0.052155346788111956,-0.02914563496982714,0.007669903939428124,-0.10584467436410927,-0.04295146206079803,-0.010737865515199285,-0.004601942363656963,-0.009203884727313927,0.07840346249193288,0.11893328021558858,-0.03357713502371916,-0.06156376228714382
37.575215397999955,0.0,0.0,0.004363323129985824,-0.07744898555724837,0.10581058590215622,-0.03674307335560429,0.015309613898168454,-0.9992074670871279,1.0,1.0,0.0,-0.0,-0.0,-0.0,0.15343553863686413,-0.0,-0.15343553863686413,-0.15343553863686413,0.07671776931843206,-0.0,0.0,-0.2301533079552962,0.2301533079552962,0.0,-0.17338603734970093,0.009302832186222076,0.15119130909442902,0.007419198751449585,0.23915639519691467,0.356821745634079,0.2662901282310486,-0.1612509787082672,-0.033568575978279114,-0.08322024345397949,-0.09175587445497513,0.2696768045425415,0.06501433998346329,0.03770574927330017,-0.04090304835699499,0.1244987566024065,0.046175407245755196,-0.03741510957479477,0.003938563168048859,-0.11866327375173569,-0.07532273232936859,-0.0403127446770668,-0.008392143994569778,-0.016616270877420902,0.0992340799421072,0.07911290694028139,-0.023016324266791344,-0.04642409831285477,-0.04090304835699499,0.1244987566024065,0.046175407245755196,-0.03741510957479477,0.003938563168048859,-0.11866327375173569,-0.07532273232936859,-0.0403127446770668,-0.008392143994569778,-0.016616270877420902,0.0992340799421072,0.07911290694028139,-0.023016324266791344,-0.04642409831285477,-0.05062136600022615,0.1198209437648451,0.052155346788111956,-0.02914563496982714,0.010737865515199285,-0.10584467436410927,-0.04601942363656919,-0.015339807878856249,-0.003067961575771161,-0.009203884727313927,0.07840346249193288,0.11433133785193161,-0.030509173447947555,-0.06156376228714382
37.59543653000003,0.0,0.0,0.004363323129985824,-0.07744898555724837,0.10581058590215622,-0.03674307335560429,0.015309613898168454,-0.9992074670871279,1.0,1.0,0.0,-0.07671776931843206,-0.0,-0.0,0.07671776931843206,-0.0,-0.15343553863686413,-0.2301533079552962,0.0,-0.0,0.0,-0.15343553863686413,0.15343553863686413,0.07671776931843206,-0.17319746315479279,0.011213671416044235,0.1435856819152832,0.01166650652885437,0.23567019402980804,0.3560780882835388,0.26886582374572754,-0.16280889511108398,-0.03581968694925308,-0.08763763308525085,-0.09309231489896774,0.2647509276866913,0.06624392420053482,0.03843168169260025,-0.04085590480826795,0.12497646640986204,0.04427400045096874,-0.03635328263044357,0.0030670128762722015,-0.11884918808937073,-0.07467880845069885,-0.040702223777770996,-0.00895492173731327,-0.017720618285238743,0.09889996983110905,0.07788143772631884,-0.02270892821252346,-0.04624261520802975,-0.04085590480826795,0.12497646640986204,0.04427400045096874,-0.03635328263044357,0.0030670128762722015,-0.11884918808937073,-0.07467880845069885,-0.040702223777770996,-0.00895492173731327,-0.017720618285238743,0.09889996983110905,0.07788143772631884,-0.02270892821252346,-0.04624261520802975,-0.05062136600022615,0.1182869629769593,0.052155346788111956,-0.02914563496982714,0.010737865515199285,-0.10584467436410927,-0.05062136600022615,-0.019941750242513212,-0.003067961575771161,-0.009203884727313927,0.07840346249193288,0.10972939548827465,-0.025907231084291035,-0.060029781499258014
37.615455646999976,0.0,0.0,-0.003272492347489368,-0.05345070834232634,0.2694352032766246,-0.03776227849931298,0.015309031824045805,-0.9991694770493896,1.0,1.0,0.0,-0.0,-0.0,-0.0,-0.0,-0.0,-0.07671776931843206,-0.2301533079552962,0.0,-0.0,0.0,-0.2301533079552962,0.2301533079552962,0.07671776931843206,-0.169273242354393,0.0116034634411335,0.13430431485176086,0.02317412942647934,0.2351599633693695,0.35526442527770996,0.2726867198944092,-0.1800370216369629,-0.04015004262328148,-0.08793965727090836,-0.09343279153108597,0.264484703540802,0.0611359179019928,0.04178464412689209,-0.039874849608168006,0.12507391441613436,0.04195365868508816,-0.03347637690603733,0.002939455211162567,-0.11905260384082794,-0.07372358441352844,-0.04500925540924072,-0.01003751065582037,-0.017796124331653118,0.09881485067307949,0.07781488168984652,-0.023985929787158966,-0.04540437459945679,-0.039874849608168006,0.12507391441613436,0.04195365868508816,-0.03347637690603733,0.002939455211162567,-0.11905260384082794,-0.07372358441352844,-0.04500925540924072,-0.01003751065582037,-0.017796124331653118,0.09881485067307949,0.07781488168984652,-0.023985929787158966,-0.04540437459945679,-0.05062136600022615,0.1182869629769593,0.052155346788111956,-0.02914563496982714,0.010737865515199285,-0.10584467436410927,-0.052155346788111956,-0.024543692606170175,-0.003067961575771161,-0.009203884727313927,0.07840346249193288,0.10666143391250349,-0.02283926950851943,-0.058495800711372656
37.63702853099994,0.0,0.0,-0.0272707695624114,-0.10144726277217041,0.2814343418840856,-0.04081781408738627,0.017347570987139165,-0.999015999788779,1.0,1.0,0.0,-0.0,-0.0,-0.0,-0.0,-0.0,-0.07671776931843206,-0.2301533079552962,0.0,-0.0,0.0,-0.07671776931843206,0.07671776931843206,0.15343553863686413,-0.171989306807518,0.010220542550086975,0.13317826390266418,0.029928945004940033,0.2361048460006714,0.3538013994693756,0.2749984562397003,-0.19553963840007782,-0.041194796562194824,-0.09029126167297363,-0.09241780638694763,0.25762972235679626,0.06293879449367523,0.04915081709623337,-0.040553865721449256,0.12472818419337273,0.04167214594781399,-0.03178767301142216,0.003175675868988037,-0.11941836029291153,-0.07314565032720566,-0.048884909600019455,-0.010298699140548706,-0.018384025432169437,0.09906859695911407,0.07610113639384508,-0.023535210639238358,-0.04356283135712147,-0.040553865721449256,0.12472818419337273,0.04167214594781399,-0.03178767301142216,0.003175675868988037,-0.11941836029291153,-0.07314565032720566,-0.048884909600019455,-0.010298699140548706,-0.018384025432169437,0.09906859695911407,0.07610113639384508,-0.023535210639238358,-0.04356283135712147,-0.05062136600022615,0.11675298218907394,0.052155346788111956,-0.02914563496982714,0.010737865515199285,-0.10584467436410927,-0.053689327575997314,-0.02914563496982714,-0.003067961575771161,-0.009203884727313927,0.07840346249193288,0.10512745312461769,-0.02283926950851943,-0.05389385834771569
37.65563643400003,0.0,0.0,-0.0272707695624114,-0.10144726277217041,0.2814343418840856,-0.04081781408738627,0.017347570987139165,-0.999015999788779,1.0,1.0,0.0,-0.07671776931843206,-0.0,-0.0,-0.0,-0.0,-0.0,-0.2301533079552962,0.0,-0.0,0.07671776931843206,-0.07671776931843206,0.0,0.15343553863686413,-0.17006181180477142,0.007640670984983444,0.12984071671962738,0.03457774221897125,0.23569399118423462,0.3515923321247101,0.27921515703201294,-0.2085731476545334,-0.03851756453514099,-0.09002997726202011,-0.08580581843852997,0.2547224164009094,0.061358146369457245,0.05205416679382324,-0.04007199197076261,0.12408321630209684,0.04083775915205479,-0.030625473707914352,0.003072962164878845,-0.11997062712907791,-0.0720914751291275,-0.05214328691363335,-0.009629391133785248,-0.018318704329431057,0.10072159394621849,0.07537430990487337,-0.023930372670292854,-0.042836993932724,-0.04007199197076261,0.12408321630209684,0.04083775915205479,-0.030625473707914352,0.003072962164878845,-0.11997062712907791,-0.0720914751291275,-0.05214328691363335,-0.009629391133785248,-0.018318704329431057,0.10072159394621849,0.07537430990487337,-0.023930372670292854,-0.042836993932724,-0.05062136600022615,0.11675298218907394,0.052155346788111956,-0.02914563496982714,0.010737865515199285,-0.10584467436410927,-0.053689327575997314,-0.0337475773334841,-0.003067961575771161,-0.009203884727313927,0.08147142406770404,0.10359347233673233,-0.02283926950851943,-0.05235987755982989
37.675569053000004,0.0,0.0,0.020725784867432664,0.001090830782496456,0.3108867730114899,-0.04081851542056392,0.016327406168225565,-0.9990331649183019,1.0,1.0,0.0,-0.0,-0.0,-0.0,-0.0,-0.0,-0.0,-0.15343553863686413,0.0,-0.0,0.15343553863686413,-0.07671776931843206,0.0,0.0,-0.1684844195842743,0.00883769616484642,0.12139780819416046,0.02549431473016739,0.22607958316802979,0.3585827648639679,0.28671205043792725,-0.21327514946460724,-0.03747600317001343,-0.08252095431089401,-0.08169858902692795,0.2435201108455658,0.04879189282655716,0.03848295658826828,-0.03967764391563833,0.12438247259706259,0.03872703202068806,-0.03289633058011532,0.0006693601608276367,-0.11822301894426346,-0.07021725177764893,-0.05331878736615181,-0.009369000792503357,-0.016441448591649532,0.101748401299119,0.07257373351603746,-0.027071936056017876,-0.04622979648411274,-0.03967764391563833,0.12438247259706259,0.03872703202068806,-0.03289633058011532,0.0006693601608276367,-0.11822301894426346,-0.07021725177764893,-0.05331878736615181,-0.009369000792503357,-0.016441448591649532,0.101748401299119,0.07257373351603746,-0.027071936056017876,-0.04622979648411274,-0.05062136600022615,0.11675298218907394,0.052155346788111956,-0.02914563496982714,0.010737865515199285,-0.10584467436410927,-0.053689327575997314,-0.03681553890925526,-0.003067961575771161,-0.009203884727313927,0.08300540485558984,0.10205949154884653,-0.02283926950851943,-0.05235987755982989
37.695768574,0.0,0.0,0.020725784867432664,0.001090830782496456,0.3108867730114899,-0.04081851542056392,0.016327406168225565,-0.9990331649183019,1.0,1.0,0.0,-0.0,-0.0,-0.0,-0.0,-0.0,-0.0,-0.15343553863686413,-0.07671776931843206,-0.0,0.07671776931843206,0.0,0.0,0.07671776931843206,-0.16926448047161102,0.00858946144580841,0.12052853405475616,0.02514144778251648,0.2296276092529297,0.3586728274822235,0.2875795364379883,-0.20831236243247986,-0.037352658808231354,-0.07768930494785309,-0.07547944039106369,0.24084478616714478,0.05013090372085571,0.04415350407361984,-0.03987265913747251,0.12432041391730309,0.03850971348583698,-0.032984547317028046,0.0015563666820526123,-0.11820050328969955,-0.07000038027763367,-0.052078090608119965,-0.009338164702057838,-0.015233536250889301,0.10330318845808506,0.07190490234643221,-0.026737183332443237,-0.04481215961277485,-0.03987265913747251,0.12432041391730309,0.03850971348583698,-0.032984547317028046,0.0015563666820526123,-0.11820050328969955,-0.07000038027763367,-0.052078090608119965,-0.009338164702057838,-0.015233536250889301,0.10330318845808506,0.07190490234643221,-0.026737183332443237,-0.04481215961277485,-0.05062136600022615,0.11675298218907394,0.052155346788111956,-0.02914563496982714,0.010737865515199285,-0.10584467436410927,-0.053689327575997314,-0.03988350048502687,-0.004601942363656963,-0.009203884727313927,0.0845393856434752,0.10205949154884653,-0.02283926950851943,-0.05082589677194409
37.715729099999976,0.0,0.0,0.016362461737446838,-0.008726646259971648,0.18653206380689397,-0.04081851542056392,0.016327406168225565,-0.9990331649183019,1.0,1.0,0.0,-0.0,-0.0,-0.0,-0.0,-0.0,-0.0,-0.07671776931843206,0.0,-0.0,0.0,0.0,0.0,0.07671776931843206,-0.16800446808338165,0.008092880249023438,0.12396411597728729,0.02189677208662033,0.2323431819677353,0.3554475009441376,0.2874346673488617,-0.21836310625076294,-0.036914218217134476,-0.07893086969852448,-0.07534822821617126,0.23880282044410706,0.05292108654975891,0.0430590957403183,-0.03955765604041517,0.12419626861810684,0.039368608966469765,-0.03379571624100208,0.002235259860754013,-0.11900683492422104,-0.07003659754991531,-0.054590776562690735,-0.009228554554283619,-0.015543927438557148,0.10333599150180817,0.07139441091567278,-0.026039637625217438,-0.045085761696100235,-0.03955765604041517,0.12419626861810684,0.039368608966469765,-0.03379571624100208,0.002235259860754013,-0.11900683492422104,-0.07003659754991531,-0.054590776562690735,-0.009228554554283619,-0.015543927438557148,0.10333599150180817,0.07139441091567278,-0.026039637625217438,-0.045085761696100235,-0.05062136600022615,0.11675298218907394,0.052155346788111956,-0.02914563496982714,0.010737865515199285,-0.10584467436410927,-0.053689327575997314,-0.04141748127291223,-0.004601942363656963,-0.009203884727313927,0.0845393856434752,0.10205949154884653,-0.02283926950851943,-0.04929191598405873
37.73574243899998,0.0,0.0,-0.04799655442984406,-0.008726646259971648,0.05235987755982989,-0.04183573280889935,0.018366907086833858,-0.9989556687783528,1.0,1.0,0.0,-0.0,-0.0,-0.0,-0.0,-0.0,-0.0,-0.07671776931843206,0.0,-0.0,0.07671776931843206,-0.07671776931843206,0.0,0.0,-0.17001987993717194,0.007707588374614716,0.12089216709136963,0.0279705673456192,0.21923427283763885,0.3568415641784668,0.29127389192581177,-0.2262246012687683,-0.031705815345048904,-0.083902508020401,-0.07246867567300797,0.2354922890663147,0.058707281947135925,0.04468659311532974,-0.04006150900386274,0.12409994564950466,0.03860062174499035,-0.032277267426252365,-0.0010419674217700958,-0.11865831911563873,-0.0690767914056778,-0.05655615031719208,-0.007926453836262226,-0.01678683701902628,0.10405587963759899,0.07056677807122469,-0.024593088775873184,-0.044678887352347374,-0.04006150900386274,0.12409994564950466,0.03860062174499035,-0.032277267426252365,-0.0010419674217700958,-0.11865831911563873,-0.0690767914056778,-0.05655615031719208,-0.007926453836262226,-0.01678683701902628,0.10405587963759899,0.07056677807122469,-0.024593088775873184,-0.044678887352347374,-0.05062136600022615,0.11675298218907394,0.052155346788111956,-0.02914563496982714,0.010737865515199285,-0.10584467436410927,-0.053689327575997314,-0.04295146206079803,-0.004601942363656963,-0.009203884727313927,0.0876073472192468,0.10052551076096072,-0.02283926950851943,-0.04929191598405873
37.75596658999996,0.0,0.0,-0.04799655442984406,-0.008726646259971648,0.05235987755982989,-0.04183573280889935,0.018366907086833858,-0.9989556687783528,1.0,1.0,0.0,-0.0,-0.0,-0.0,-0.0,-0.0,-0.0,-0.07671776931843206,0.0,-0.0,0.07671776931843206,0.0,0.0,0.0,-0.16941292583942413,0.008565831929445267,0.1194993257522583,0.032627418637275696,0.21566557884216309,0.35797861218452454,0.2911744713783264,-0.22940021753311157,-0.02794160507619381,-0.08160238713026047,-0.07237089425325394,0.2291434109210968,0.06218770891427994,0.05064006894826889,-0.03990977047942579,0.1243145065382123,0.03825241141021252,-0.03111305460333824,-0.001934140920639038,-0.1183740571141243,-0.06910164654254913,-0.05735005438327789,-0.006985401269048452,-0.016211806796491146,0.1040803249925375,0.06897955853492022,-0.02372298203408718,-0.04319051839411259,-0.03990977047942579,0.1243145065382123,0.03825241141021252,-0.03111305460333824,-0.001934140920639038,-0.1183740571141243,-0.06910164654254913,-0.05735005438327789,-0.006985401269048452,-0.016211806796491146,0.1040803249925375,0.06897955853492022,-0.02372298203408718,-0.04319051839411259,-0.05062136600022615,0.11675298218907394,0.052155346788111956,-0.02914563496982714,0.010737865515199285,-0.10584467436410927,-0.053689327575997314,-0.04448544284868339,-0.003067961575771161,-0.009203884727313927,0.0876073472192468,0.09899152997307537,-0.02283926950851943,-0.04929191598405873
37.77591528200003,0.0,0.0,-0.032724923474893676,0.009817477042468103,-0.05126904677733343,-0.04285343952332494,0.01938607978436128,-0.9988932688889314,1.0,1.0,0.0,-0.0,-0.0,0.07671776931843206,-0.0,-0.0,-0.0,-0.07671776931843206,0.07671776931843206,-0.0,0.0,-0.07671776931843206,0.0,0.0,-0.16854488849639893,0.007593143731355667,0.12105320394039154,0.030917584896087646,0.21615764498710632,0.35797426104545593,0.2909544110298157,-0.2366848737001419,-0.024445362389087677,-0.08156130462884903,-0.07082162797451019,0.22581836581230164,0.06297362595796585,0.04700131714344025,-0.039692761143669486,0.1240713344886899,0.03864088095724583,-0.031540513038635254,-0.0018111243844032288,-0.11837514489889145,-0.06915666162967682,-0.05917121842503548,-0.006111340597271919,-0.016201536171138287,0.10446764156222343,0.06814829725772142,-0.023526502773165703,-0.04410020634531975,-0.039692761143669486,0.1240713344886899,0.03864088095724583,-0.031540513038635254,-0.0018111243844032288,-0.11837514489889145,-0.06915666162967682,-0.05917121842503548,-0.006111340597271919,-0.016201536171138287,0.10446764156222343,0.06814829725772142,-0.023526502773165703,-0.04410020634531975,-0.05062136600022615,0.11675298218907394,0.052155346788111956,-0.027611654181941336,0.010737865515199285,-0.10584467436410927,-0.053689327575997314,-0.04601942363656919,-0.003067961575771161,-0.009203884727313927,0.0876073472192468,0.09899152997307537,-0.021305288720634072,-0.04929191598405873
37.79669966300003,0.0,0.0,-0.032724923474893676,0.009817477042468103,-0.05126904677733343,-0.04285343952332494,0.01938607978436128,-0.9988932688889314,1.0,1.0,0.0,-0.0,-0.0,-0.0,-0.0,-0.0,-0.0,-0.07671776931843206,0.0,-0.0,0.0,0.0,0.07671776931843206,0.0,-0.16845418512821198,0.005961675196886063,0.12274017930030823,0.02999967336654663,0.2139194905757904,0.35954639315605164,0.2930684983730316,-0.23772038519382477,-0.021967217326164246,-0.08071587234735489,-0.06975608319044113,0.2214580774307251,0.06533009558916092,0.04567926377058029,-0.03967008530162275,0.1236634673550725,0.039062624797225,-0.03176999092102051,-0.0023706629872322083,-0.11798211187124252,-0.06862813979387283,-0.05943009629845619,-0.005491804331541061,-0.01599017810076475,0.1047340277582407,0.06705822516232729,-0.022937385365366936,-0.04443071968853474,-0.03967008530162275,0.1236634673550725,0.039062624797225,-0.03176999092102051,-0.0023706629872322083,-0.11798211187124252,-0.06862813979387283,-0.05943009629845619,-0.005491804331541061,-0.01599017810076475,0.1047340277582407,0.06705822516232729,-0.022937385365366936,-0.04443071968853474,-0.05062136600022615,0.11675298218907394,0.052155346788111956,-0.027611654181941336,0.010737865515199285,-0.10584467436410927,-0.053689327575997314,-0.04755340442445499,-0.003067961575771161,-0.009203884727313927,0.0876073472192468,0.09899152997307537,-0.021305288720634072,-0.04929191598405873
37.81634274999999,0.0,0.0,-0.006544984694978736,0.002181661564992912,-0.05345070834232634,-0.04387092794209218,0.020405082763763807,-0.9988288012862384,1.0,1.0,0.0,-0.0,-0.0,-0.0,-0.0,-0.0,-0.0,-0.15343553863686413,0.0,-0.0,0.0,0.0,0.0,0.0,-0.1686408966779709,0.005093321204185486,0.12575431168079376,0.02641037106513977,0.2230873554944992,0.3558807671070099,0.29207468032836914,-0.2499542236328125,-0.02348199486732483,-0.08197764307260513,-0.06915975362062454,0.22444069385528564,0.06704410165548325,0.042811669409275055,-0.039716763189062476,0.12344637885689735,0.03981615789234638,-0.03266731649637222,-7.869675755500793e-05,-0.11889851838350296,-0.06887659430503845,-0.062488555908203125,-0.005870498716831207,-0.016305620782077312,0.10488311015069485,0.06780387926846743,-0.022508883848786354,-0.045147618278861046,-0.039716763189062476,0.12344637885689735,0.03981615789234638,-0.03266731649637222,-7.869675755500793e-05,-0.11889851838350296,-0.06887659430503845,-0.062488555908203125,-0.005870498716831207,-0.016305620782077312,0.10488311015069485,0.06780387926846743,-0.022508883848786354,-0.045147618278861046,-0.05062136600022615,0.11675298218907394,0.052155346788111956,-0.027611654181941336,0.010737865515199285,-0.10584467436410927,-0.053689327575997314,-0.05062136600022615,-0.003067961575771161,-0.009203884727313927,0.0876073472192468,0.09899152997307537,-0.021305288720634072,-0.04929191598405873
37.83627949799995,0.0,0.0,-0.031634092692397225,0.017453292519943295,-0.006544984694978736,-0.04387092794209218,0.020405082763763807,-0.9988288012862384,1.0,1.0,0.0,-0.0,-0.0,-0.0,-0.0,-0.0,-0.0,-0.07671776931843206,0.0,-0.0,0.0,0.0,0.0,0.0,-0.16671526432037354,0.005611978471279144,0.12425613403320312,0.027882643043994904,0.21977747976779938,0.35795342922210693,0.2931005656719208,-0.2597320079803467,-0.023079365491867065,-0.08010192215442657,-0.07040024548768997,0.2207421362400055,0.06545834243297577,0.04376095533370972,-0.03923535509966314,0.12357604317367077,0.03944161348044872,-0.03229924850165844,-0.0009061656892299652,-0.1183803528547287,-0.06862012296915054,-0.06493300199508667,-0.005769841372966766,-0.015836690552532673,0.10457298718392849,0.06687923986464739,-0.022905323654413223,-0.04491029679775238,-0.03923535509966314,0.12357604317367077,0.03944161348044872,-0.03229924850165844,-0.0009061656892299652,-0.1183803528547287,-0.06862012296915054,-0.06493300199508667,-0.005769841372966766,-0.015836690552532673,0.10457298718392849,0.06687923986464739,-0.022905323654413223,-0.04491029679775238,-0.05062136600022615,0.11675298218907394,0.052155346788111956,-0.027611654181941336,0.010737865515199285,-0.10584467436410927,-0.053689327575997314,-0.052155346788111956,-0.003067961575771161,-0.009203884727313927,0.0876073472192468,0.09899152997307537,-0.021305288720634072,-0.04929191598405873
37.856469242,0.0,0.0,-0.031634092692397225,0.017453292519943295,-0.006544984694978736,-0.04387092794209218,0.020405082763763807,-0.9988288012862384,1.0,1.0,0.0,-0.0,-0.0,-0.0,-0.0,-0.0,-0.0,-0.07671776931843206,0.0,-0.0,0.0,0.0,0.0,0.0,-0.1679486483335495,0.006069451570510864,0.12234841287136078,0.029144182801246643,0.21948303282260895,0.35777074098587036,0.29450905323028564,-0.26184555888175964,-0.023942500352859497,-0.08205702155828476,-0.07086870074272156,0.22338581085205078,0.06596256792545319,0.041819244623184204,-0.03954370110295713,0.1236904114484787,0.038964683189988136,-0.031983863562345505,-0.0009797774255275726,-0.11842602491378784,-0.06826800107955933,-0.06546138972043991,-0.005985625088214874,-0.01632546540349722,0.1044558733701706,0.06754015851765871,-0.02277926728129387,-0.04539572447538376,-0.03954370110295713,0.1236904114484787,0.038964683189988136,-0.031983863562345505,-0.0009797774255275726,-0.11842602491378784,-0.06826800107955933,-0.06546138972043991,-0.005985625088214874,-0.01632546540349722,0.1044558733701706,0.06754015851765871,-0.02277926728129387,-0.04539572447538376,-0.05062136600022615,0.11675298218907394,0.052155346788111956,-0.027611654181941336,0.010737865515199285,-0.10584467436410927,-0.053689327575997314,-0.05522330836388312,-0.003067961575771161,-0.009203884727313927,0.0876073472192468,0.09899152997307537,-0.021305288720634072,-0.04929191598405873
37.87640043500005,0.0,0.0,0.004363323129985824,0.02945243112740431,0.018544123302439753,-0.04285165512691918,0.02142582756345959,-0.9988516754584258,1.0,1.0,0.0,-0.0,-0.0,-0.0,-0.0,-0.0,-0.0,-0.15343553863686413,0.0,-0.0,0.0,0.0,0.0,0.0,-0.168589249253273,0.004390183836221695,0.12375430762767792,0.02485315501689911,0.2231372892856598,0.3575608432292938,0.2962145507335663,-0.26380833983421326,-0.02704276517033577,-0.07885957509279251,-0.06915361434221268,0.22151732444763184,0.0629478320479393,0.039207927882671356,-0.03970385133288801,0.1232705945149064,0.03931615687906742,-0.03305662050843239,-6.621330976486206e-05,-0.11847849935293198,-0.06784162670373917,-0.06595208495855331,-0.006760691292583942,-0.015526103787124157,0.10488464497029781,0.06707303691655397,-0.02353295125067234,-0.04604855366051197,-0.03970385133288801,0.1232705945149064,0.03931615687906742,-0.03305662050843239,-6.621330976486206e-05,-0.11847849935293198,-0.06784162670373917,-0.06595208495855331,-0.006760691292583942,-0.015526103787124157,0.10488464497029781,0.06707303691655397,-0.02353295125067234,-0.04604855366051197,-0.05062136600022615,0.11675298218907394,0.052155346788111956,-0.027611654181941336,0.010737865515199285,-0.10584467436410927,-0.053689327575997314,-0.05675728915176892,-0.004601942363656963,-0.009203884727313927,0.0876073472192468,0.09899152997307537,-0.021305288720634072,-0.04929191598405873
37.89655723399994,0.0,0.0,0.004363323129985824,0.02945243112740431,0.018544123302439753,-0.04285165512691918,0.02142582756345959,-0.9988516754584258,1.0,1.0,0.0,-0.0,-0.0,-0.0,-0.0,-0.0,-0.0,-0.07671776931843206,-0.07671776931843206,-0.0,0.0,0.0,0.0,0.0,-0.16709628701210022,0.003315083682537079,0.1262781322002411,0.024133123457431793,0.22533093392848969,0.3569157123565674,0.295087069272995,-0.27421846985816956,-0.026650240644812584,-0.07668270915746689,-0.068149134516716,0.21829384565353394,0.062425076961517334,0.0404878705739975,-0.03933061077259481,0.12300181947648525,0.039947113022208214,-0.03323662839829922,0.0004821978509426117,-0.11863978207111359,-0.06812349706888199,-0.06855461746454239,-0.006662560161203146,-0.014981887303292751,0.10513576492667198,0.0662671672180295,-0.023663640022277832,-0.045728567987680435,-0.03933061077259481,0.12300181947648525,0.039947113022208214,-0.03323662839829922,0.0004821978509426117,-0.11863978207111359,-0.06812349706888199,-0.06855461746454239,-0.006662560161203146,-0.014981887303292751,0.10513576492667198,0.0662671672180295,-0.023663640022277832,-0.045728567987680435,-0.05062136600022615,0.11675298218907394,0.052155346788111956,-0.027611654181941336,0.010737865515199285,-0.10584467436410927,-0.053689327575997314,-0.05829126993965428,-0.004601942363656963,-0.009203884727313927,0.0876073472192468,0.09899152997307537,-0.021305288720634072,-0.04929191598405873
37.916567093000026,0.0,0.0,-0.009817477042468103,0.030543261909900768,-0.001090830782496456,-0.04285165512691918,0.02142582756345959,-0.9988516754584258,1.0,1.0,0.0,-0.0,-0.0,-0.0,-0.0,-0.0,-0.0,-0.07671776931843206,0.0,-0.0,0.0,0.0,0.0,0.0,-0.16828012466430664,0.004330068826675415,0.12518362700939178,0.02296588569879532,0.2249213308095932,0.3565877079963684,0.2950670123100281,-0.2743229269981384,-0.02838759869337082,-0.07861972600221634,-0.07047749310731888,0.21974396705627441,0.06404877454042435,0.03945482522249222,-0.039626570185646415,0.12325556576251984,0.03967348672449589,-0.033528437837958336,0.0003797970712184906,-0.11872178316116333,-0.06812851130962372,-0.0685807317495346,-0.007096899673342705,-0.015466141514480114,0.10455367527902126,0.06662969756871462,-0.02325771562755108,-0.045986829325556755,-0.039626570185646415,0.12325556576251984,0.03967348672449589,-0.033528437837958336,0.0003797970712184906,-0.11872178316116333,-0.06812851130962372,-0.0685807317495346,-0.007096899673342705,-0.015466141514480114,0.10455367527902126,0.06662969756871462,-0.02325771562755108,-0.045986829325556755,-0.05062136600022615,0.11675298218907394,0.052155346788111956,-0.027611654181941336,0.010737865515199285,-0.10584467436410927,-0.053689327575997314,-0.05982525072754008,-0.004601942363656963,-0.009203884727313927,0.0876073472192468,0.09899152997307537,-0.021305288720634072,-0.04929191598405873
37.93661695000003,0.0,0.0,0.00545415391248228,0.013089969389957472,-0.006544984694978736,-0.04285165512691918,0.02142582756345959,-0.9988516754584258,1.0,1.0,0.0,-0.0,-0.0,-0.0,-0.0,-0.0,-0.0,-0.07671776931843206,0.0,-0.0,0.0,0.0,0.0,0.0,-0.16841888427734375,0.00306127592921257,0.12729322910308838,0.02376345545053482,0.22799243032932281,0.3553321957588196,0.29501503705978394,-0.27794721722602844,-0.027652215212583542,-0.07905463874340057,-0.06855622678995132,0.2197294533252716,0.06549353152513504,0.04078780859708786,-0.03966126008890569,0.12293836753815413,0.040200887247920036,-0.03332904540002346,0.0011475719511508942,-0.11903566122055054,-0.06814150512218475,-0.06948680430650711,-0.0069130538031458855,-0.015574869699776173,0.10503399185836315,0.06662606913596392,-0.022896526381373405,-0.045653583481907845,-0.03966126008890569,0.12293836753815413,0.040200887247920036,-0.03332904540002346,0.0011475719511508942,-0.11903566122055054,-0.06814150512218475,-0.06948680430650711,-0.0069130538031458855,-0.015574869699776173,0.10503399185836315,0.06662606913596392,-0.022896526381373405,-0.045653583481907845,-0.05062136600022615,0.11675298218907394,0.052155346788111956,-0.027611654181941336,0.010737865515199285,-0.10584467436410927,-0.053689327575997314,-0.06135923151542544,-0.004601942363656963,-0.009203884727313927,0.0876073472192468,0.09899152997307537,-0.021305288720634072,-0.04929191598405873
37.956692159,0.0,0.0,0.008726646259971648,0.008726646259971648,-0.007635815477475192,-0.04285165512691918,0.02142582756345959,-0.9988516754584258,1.0,1.0,0.0,-0.0,-0.0,-0.0,-0.0,-0.0,-0.0,-0.07671776931843206,0.0,-0.0,0.0,0.0,0.0,0.0,-0.1682112216949463,0.003024660050868988,0.1282876431941986,0.023158110678195953,0.22968681156635284,0.35477229952812195,0.29497841000556946,-0.2825775742530823,-0.027728497982025146,-0.079165980219841,-0.06860914826393127,0.2190924882888794,0.06612027436494827,0.04079453647136688,-0.03960934444330633,0.12292921356856823,0.040449490770697594,-0.03348038159310818,0.0015711672604084015,-0.11917563527822495,-0.06815066188573837,-0.07064439356327057,-0.006932124495506287,-0.01560270506888628,0.10502076148986816,0.06646682787686586,-0.022739840671420097,-0.04565190151333809,-0.03960934444330633,0.12292921356856823,0.040449490770697594,-0.03348038159310818,0.0015711672604084015,-0.11917563527822495,-0.06815066188573837,-0.07064439356327057,-0.006932124495506287,-0.01560270506888628,0.10502076148986816,0.06646682787686586,-0.022739840671420097,-0.04565190151333809,-0.05062136600022615,0.11675298218907394,0.052155346788111956,-0.027611654181941336,0.010737865515199285,-0.10584467436410927,-0.053689327575997314,-0.06289321230331124,-0.004601942363656963,-0.009203884727313927,0.0876073472192468,0.09899152997307537,-0.021305288720634072,-0.04929191598405873
37.97674303400004,0.0,0.0,-0.001090830782496456,0.017453292519943295,-0.017453292519943295,-0.04183318486056168,0.021426753221263296,-0.9988948287436556,1.0,1.0,0.0,-0.0,-0.0,-0.0,-0.0,-0.0,-0.0,-0.07671776931843206,0.0,-0.0,0.0,0.0,0.0,0.0,-0.16780386865139008,0.003561154007911682,0.1270633339881897,0.02318047732114792,0.2276000827550888,0.35629621148109436,0.2951435148715973,-0.2882903218269348,-0.027422213926911354,-0.07892158627510071,-0.06892367452383041,0.21814051270484924,0.06519336998462677,0.039536021649837494,-0.039507506182417274,0.1230633370578289,0.040143413469195366,-0.033474789932370186,0.001049485057592392,-0.11879465728998184,-0.06810938566923141,-0.0720725804567337,-0.0068555534817278385,-0.015541606582701206,0.10494212992489338,0.06622883398085833,-0.022971566766500473,-0.045966530218720436,-0.039507506182417274,0.1230633370578289,0.040143413469195366,-0.033474789932370186,0.001049485057592392,-0.11879465728998184,-0.06810938566923141,-0.0720725804567337,-0.0068555534817278385,-0.015541606582701206,0.10494212992489338,0.06622883398085833,-0.022971566766500473,-0.045966530218720436,-0.05062136600022615,0.11675298218907394,0.052155346788111956,-0.027611654181941336,0.010737865515199285,-0.10584467436410927,-0.053689327575997314,-0.06442719309119704,-0.004601942363656963,-0.009203884727313927,0.0876073472192468,0.09899152997307537,-0.021305288720634072,-0.04929191598405873
37.99700420199997,0.0,0.0,-0.001090830782496456,0.009817477042468103,-0.02945243112740431,-0.04183318486056168,0.021426753221263296,-0.9988948287436556,1.0,1.0,0.0,-0.0,-0.0,-0.0,-0.0,-0.0,-0.0,-0.07671776931843206,0.0,-0.0,0.0,0.0,0.0,0.0,-0.16728660464286804,0.0031090937554836273,0.12800981104373932,0.02476353943347931,0.22875775396823883,0.3556920886039734,0.29455870389938354,-0.29744282364845276,-0.027248872444033623,-0.07924184948205948,-0.06859711557626724,0.21777230501174927,0.06630206853151321,0.040282584726810455,-0.039378190180286765,0.12295032199472189,0.04038003273308277,-0.03307902440428734,0.001338902860879898,-0.11894568800926208,-0.06825558841228485,-0.07436070591211319,-0.006812218111008406,-0.015621672384440899,0.10502376966178417,0.06613678205758333,-0.022694392129778862,-0.045779889449477196,-0.039378190180286765,0.12295032199472189,0.04038003273308277,-0.03307902440428734,0.001338902860879898,-0.11894568800926208,-0.06825558841228485,-0.07436070591211319,-0.006812218111008406,-0.015621672384440899,0.10502376966178417,0.06613678205758333,-0.022694392129778862,-0.045779889449477196,-0.05062136600022615,0.11675298218907394,0.052155346788111956,-0.027611654181941336,0.010737865515199285,-0.10584467436410927,-0.053689327575997314,-0.0674951546669682,-0.004601942363656963,-0.009203884727313927,0.0876073472192468,0.09899152997307537,-0.021305288720634072,-0.04929191598405873
38.016994005000015,0.0,0.0,-0.008726646259971648,0.004363323129985824,-0.004363323129985824,-0.04183318486056168,0.021426753221263296,-0.9988948287436556,1.0,1.0,0.0,-0.0,-0.0,-0.0,-0.0,-0.0,-0.0,-0.07671776931843206,0.0,-0.0,0.0,0.0,0.0,0.0,-0.1673242598772049,0.0038069896399974823,0.12715211510658264,0.026366010308265686,0.22812604904174805,0.35599285364151,0.2948319613933563,-0.298178106546402,-0.02769293449819088,-0.08051570504903793,-0.06956110149621964,0.21899890899658203,0.06698275357484818,0.04040650278329849,-0.03938760398887098,0.12312479596585035,0.0401656087487936,-0.032678406685590744,0.0011809766292572021,-0.11887049674987793,-0.06818727403879166,-0.0745445266366005,-0.00692323362454772,-0.015940136276185513,0.10478277318179607,0.06644343305379152,-0.022524220868945122,-0.045748909935355186,-0.03938760398887098,0.12312479596585035,0.0401656087487936,-0.032678406685590744,0.0011809766292572021,-0.11887049674987793,-0.06818727403879166,-0.0745445266366005,-0.00692323362454772,-0.015940136276185513,0.10478277318179607,0.06644343305379152,-0.022524220868945122,-0.045748909935355186,-0.05062136600022615,0.11675298218907394,0.052155346788111956,-0.027611654181941336,0.010737865515199285,-0.10584467436410927,-0.053689327575997314,-0.0674951546669682,-0.004601942363656963,-0.009203884727313927,0.0876073472192468,0.09899152997307537,-0.021305288720634072,-0.04929191598405873
38.036988382000004,0.0,0.0,-0.015271630954950384,0.0,0.002181661564992912,-0.04183318486056168,0.021426753221263296,-0.9988948287436556,1.0,1.0,0.0,-0.0,-0.0,-0.0,-0.0,-0.0,-0.0,0.0,0.0,-0.0,0.0,0.0,0.0,0.0,-0.167098268866539,0.0041498951613903046,0.12651661038398743,0.028345271944999695,0.226934015750885,0.35605812072753906,0.2951321601867676,-0.2987287640571594,-0.027910083532333374,-0.0813131108880043,-0.07001695781946182,0.21974492073059082,0.06748387962579727,0.04099075496196747,-0.039331106236204505,0.12321052234619856,0.0400067325681448,-0.03218359127640724,0.0008829683065414429,-0.11885417997837067,-0.06811222434043884,-0.07468219101428986,-0.0069775208830833435,-0.016139487735927105,0.10466880910098553,0.06662993598729372,-0.022398939356207848,-0.04560284689068794,-0.039331106236204505,0.12321052234619856,0.0400067325681448,-0.03218359127640724,0.0008829683065414429,-0.11885417997837067,-0.06811222434043884,-0.07468219101428986,-0.0069775208830833435,-0.016139487735927105,0.10466880910098553,0.06662993598729372,-0.022398939356207848,-0.04560284689068794,-0.05062136600022615,0.11675298218907394,0.052155346788111956,-0.027611654181941336,0.010737865515199285,-0.10584467436410927,-0.053689327575997314,-0.0674951546669682,-0.004601942363656963,-0.009203884727313927,0.0876073472192468,0.09899152997307537,-0.021305288720634072,-0.04929191598405873
38.05785829800004,0.0,0.0,-0.011999138607461015,-0.001090830782496456,0.001090830782496456,-0.04183318486056168,0.021426753221263296,-0.9988948287436556,1.0,1.0,0.0,-0.0,-0.0,-0.0,-0.0,-0.0,-0.0,-0.07671776931843206,0.0,-0.0,0.0,0.0,0.0,0.0,-0.16807372868061066,0.004673290997743607,0.12508101761341095,0.029002465307712555,0.22697661817073822,0.3555566072463989,0.29659172892570496,-0.3005530536174774,-0.029292097315192223,-0.08283614367246628,-0.070448137819767,0.22173276543617249,0.06788217276334763,0.03944142162799835,-0.03957497118972242,0.12334137130528688,0.03964783437550068,-0.03201929293572903,0.0008936189115047455,-0.1189795583486557,-0.0677473321557045,-0.07513826340436935,-0.007323024328798056,-0.0165202459320426,0.10456101410090923,0.06712689716368914,-0.02229936607182026,-0.04599018022418022,-0.03957497118972242,0.12334137130528688,0.03964783437550068,-0.03201929293572903,0.0008936189115047455,-0.1189795583486557,-0.0677473321557045,-0.07513826340436935,-0.007323024328798056,-0.0165202459320426,0.10456101410090923,0.06712689716368914,-0.02229936607182026,-0.04599018022418022,-0.05062136600022615,0.11675298218907394,0.052155346788111956,-0.027611654181941336,0.010737865515199285,-0.10584467436410927,-0.053689327575997314,-0.07056311624273937,-0.004601942363656963,-0.009203884727313927,0.0876073472192468,0.09899152997307537,-0.021305288720634072,-0.04929191598405873
38.07756053200001,0.0,0.0,-0.01090830782496456,-0.00545415391248228,0.007635815477475192,-0.04183224855208564,0.022446572393802048,-0.9988724715241912,1.0,1.0,0.0,-0.0,-0.0,-0.0,-0.0,-0.0,-0.0,-0.07671776931843206,0.0,-0.0,0.0,0.0,0.0,0.0,-0.16685394942760468,0.003594540059566498,0.12703277170658112,0.030194759368896484,0.22722162306308746,0.355117529630661,0.2962604761123657,-0.3075430393218994,-0.028805680572986603,-0.08135876059532166,-0.0701330155134201,0.21903952956199646,0.06829177588224411,0.04153171181678772,-0.03927002637647092,0.12307168357074261,0.04013577289879322,-0.031721219420433044,0.0009548701345920563,-0.11908932775259018,-0.0678301453590393,-0.07688575983047485,-0.007201420143246651,-0.016150900162756443,0.10463979467749596,0.06645358819514513,-0.022196965292096138,-0.04546760767698288,-0.03927002637647092,0.12307168357074261,0.04013577289879322,-0.031721219420433044,0.0009548701345920563,-0.11908932775259018,-0.0678301453590393,-0.07688575983047485,-0.007201420143246651,-0.016150900162756443,0.10463979467749596,0.06645358819514513,-0.022196965292096138,-0.04546760767698288,-0.05062136600022615,0.11675298218907394,0.052155346788111956,-0.027611654181941336,0.010737865515199285,-0.10584467436410927,-0.053689327575997314,-0.07056311624273937,-0.004601942363656963,-0.009203884727313927,0.0876073472192468,0.09899152997307537,-0.021305288720634072,-0.04929191598405873
38.097584722999954,0.0,0.0,-0.003272492347489368,-0.011999138607461015,0.04363323129985824,-0.04285069610595109,0.022445602722164858,-0.9988293211363363,1.0,1.0,0.0,-0.0,-0.0,-0.0,-0.0,-0.0,-0.0,0.0,0.0,-0.0,0.0,0.0,0.0,0.0,-0.16742417216300964,0.0032341368496418,0.1275402307510376,0.029996342957019806,0.22975681722164154,0.3540375232696533,0.2965441644191742,-0.3059336543083191,-0.02933534048497677,-0.08216457813978195,-0.07025717198848724,0.2203831970691681,0.06898746639490128,0.04153233766555786,-0.039412582060322165,0.12298158276826143,0.04026263765990734,-0.031770823523402214,0.0015886686742305756,-0.1193593293428421,-0.06775922328233719,-0.07648341357707977,-0.007333835121244192,-0.016352354548871517,0.10460875555872917,0.06678950507193804,-0.022023042663931847,-0.045467451214790344,-0.039412582060322165,0.12298158276826143,0.04026263765990734,-0.031770823523402214,0.0015886686742305756,-0.1193593293428421,-0.06775922328233719,-0.07648341357707977,-0.007333835121244192,-0.016352354548871517,0.10460875555872917,0.06678950507193804,-0.022023042663931847,-0.045467451214790344,-0.05062136600022615,0.11675298218907394,0.052155346788111956,-0.027611654181941336,0.010737865515199285,-0.10584467436410927,-0.053689327575997314,-0.07056311624273937,-0.004601942363656963,-0.009203884727313927,0.0876073472192468,0.09899152997307537,-0.021305288720634072,-0.04929191598405873
38.11778907799999,0.0,0.0,-0.003272492347489368,-0.011999138607461015,0.04363323129985824,-0.04285069610595109,0.022445602722164858,-0.9988293211363363,1.0,1.0,0.0,-0.0,-0.0,-0.0,-0.0,-0.0,-0.0,0.0,0.0,-0.0,0.0,0.0,0.0,0.0,-0.16887909173965454,0.004119221121072769,0.12611280381679535,0.029067672789096832,0.22935999929904938,0.35373276472091675,0.2979707717895508,-0.2997654974460602,-0.030682027339935303,-0.08372035622596741,-0.07118295133113861,0.22249537706375122,0.0694463849067688,0.04016725718975067,-0.03977631195448339,0.12320285383611917,0.03990578092634678,-0.03200299106538296,0.0014894641935825348,-0.11943551898002625,-0.06740257143974304,-0.07494137436151505,-0.007670506834983826,-0.01674129907041788,0.10437731072306633,0.06731755007058382,-0.021908313035964966,-0.04580872133374214,-0.03977631195448339,0.12320285383611917,0.03990578092634678,-0.03200299106538296,0.0014894641935825348,-0.11943551898002625,-0.06740257143974304,-0.07494137436151505,-0.007670506834983826,-0.01674129907041788,0.10437731072306633,0.06731755007058382,-0.021908313035964966,-0.04580872133374214,-0.05062136600022615,0.11675298218907394,0.052155346788111956,-0.027611654181941336,0.010737865515199285,-0.10584467436410927,-0.053689327575997314,-0.07056311624273937,-0.004601942363656963,-0.009203884727313927,0.0876073472192468,0.09899152997307537,-0.021305288720634072,-0.04929191598405873
38.13778315800005,0.0,0.0,-0.004363323129985824,-0.013089969389957472,-0.008726646259971648,-0.04285069610595109,0.022445602722164858,-0.9988293211363363,1.0,1.0,0.0,-0.0,-0.0,-0.0,-0.0,-0.0,-0.0,0.0,0.0,-0.0,0.0,0.0,0.0,0.0,-0.16849292814731598,0.003657884895801544,0.12752339243888855,0.028851620852947235,0.2289242148399353,0.3529626429080963,0.29782262444496155,-0.30144456028938293,-0.02996091917157173,-0.08324004709720612,-0.07073617726564407,0.22064396739006042,0.07039551436901093,0.04108702391386032,-0.03967977105639875,0.12308751977980137,0.04025842808187008,-0.03205700404942036,0.0013805180788040161,-0.11962804943323135,-0.06743960827589035,-0.07536114007234573,-0.007490229792892933,-0.016621221788227558,0.10448900423943996,0.06685469765216112,-0.021671030670404434,-0.04557877965271473,-0.03967977105639875,0.12308751977980137,0.04025842808187008,-0.03205700404942036,0.0013805180788040161,-0.11962804943323135,-0.06743960827589035,-0.07536114007234573,-0.007490229792892933,-0.016621221788227558,0.10448900423943996,0.06685469765216112,-0.021671030670404434,-0.04557877965271473,-0.05062136600022615,0.11675298218907394,0.052155346788111956,-0.027611654181941336,0.010737865515199285,-0.10584467436410927,-0.053689327575997314,-0.07056311624273937,-0.004601942363656963,-0.009203884727313927,0.0876073472192468,0.09899152997307537,-0.021305288720634072,-0.04929191598405873
38.158201953,0.0,0.0,0.0,-0.001090830782496456,0.016362461737446838,-0.04285069610595109,0.022445602722164858,-0.9988293211363363,1.0,1.0,0.0,-0.0,-0.0,-0.0,-0.0,-0.0,-0.0,0.0,0.0,-0.0,0.0,0.0,0.0,0.0,-0.16881391406059265,0.0037162601947784424,0.12633676826953888,0.027324646711349487,0.2285820096731186,0.35378777980804443,0.29867643117904663,-0.3001224994659424,-0.030086170881986618,-0.08263368159532547,-0.0706353634595871,0.22071382403373718,0.06898733228445053,0.03900960087776184,-0.03976001753471792,0.1231021136045456,0.03996177203953266,-0.032438747584819794,0.0012949667870998383,-0.11942176520824432,-0.06722615659236908,-0.0750306248664856,-0.0075215427204966545,-0.016469630412757397,0.10451420769095421,0.06687216181308031,-0.022023076191544533,-0.04609813541173935,-0.03976001753471792,0.1231021136045456,0.03996177203953266,-0.032438747584819794,0.0012949667870998383,-0.11942176520824432,-0.06722615659236908,-0.0750306248664856,-0.0075215427204966545,-0.016469630412757397,0.10451420769095421,0.06687216181308031,-0.022023076191544533,-0.04609813541173935,-0.05062136600022615,0.11675298218907394,0.052155346788111956,-0.027611654181941336,0.010737865515199285,-0.10584467436410927,-0.053689327575997314,-0.07056311624273937,-0.004601942363656963,-0.009203884727313927,0.0876073472192468,0.09899152997307537,-0.021305288720634072,-0.04929191598405873
38.17802053699995,0.0,0.0,0.013089969389957472,-0.01090830782496456,0.019634954084936207,-0.04386901009330644,0.02244460981518004,-0.9987851367755118,1.0,1.0,0.0,-0.0,-0.0,-0.0,-0.0,-0.0,-0.0,0.0,0.0,-0.0,0.0,0.0,0.0,0.0,-0.16905972361564636,0.0026545152068138123,0.12854480743408203,0.02647434175014496,0.23206736147403717,0.3517439663410187,0.2984547019004822,-0.2987522780895233,-0.030313488095998764,-0.08240800350904465,-0.0699220821261406,0.2208271026611328,0.07029817998409271,0.04031495004892349,-0.039821469923481345,0.12283667735755444,0.04051378183066845,-0.032651323825120926,0.002166304737329483,-0.11993271857500076,-0.06728158891201019,-0.07468806952238083,-0.007578372023999691,-0.01641321089118719,0.10469252802431583,0.06690048146992922,-0.021695364266633987,-0.045771798118948936,-0.039821469923481345,0.12283667735755444,0.04051378183066845,-0.032651323825120926,0.002166304737329483,-0.11993271857500076,-0.06728158891201019,-0.07468806952238083,-0.007578372023999691,-0.01641321089118719,0.10469252802431583,0.06690048146992922,-0.021695364266633987,-0.045771798118948936,-0.05062136600022615,0.11675298218907394,0.052155346788111956,-0.027611654181941336,0.010737865515199285,-0.10584467436410927,-0.053689327575997314,-0.07056311624273937,-0.004601942363656963,-0.009203884727313927,0.0876073472192468,0.09899152997307537,-0.021305288720634072,-0.04929191598405873
38.198004450999974,0.0,0.0,0.003272492347489368,-0.009817477042468103,0.016362461737446838,-0.04386901009330644,0.02244460981518004,-0.9987851367755118,1.0,1.0,0.0,-0.0,-0.0,-0.0,-0.0,-0.0,-0.0,0.0,0.0,-0.0,0.0,0.0,0.0,0.0,-0.1689406782388687,0.0033851489424705505,0.1281503587961197,0.02661677449941635,0.23106203973293304,0.3519265353679657,0.2984675467014313,-0.2997763752937317,-0.03042270801961422,-0.08294756710529327,-0.07065349072217941,0.2204577922821045,0.07046011835336685,0.040240898728370667,-0.03979170857928693,0.12301933579146862,0.040415169671177864,-0.03261571563780308,0.0019149743020534515,-0.11988707631826401,-0.06727837771177292,-0.07494409382343292,-0.007605677004903555,-0.016548101790249348,0.10450967587530613,0.06680815387517214,-0.021654879674315453,-0.04579031094908714,-0.03979170857928693,0.12301933579146862,0.040415169671177864,-0.03261571563780308,0.0019149743020534515,-0.11988707631826401,-0.06727837771177292,-0.07494409382343292,-0.007605677004903555,-0.016548101790249348,0.10450967587530613,0.06680815387517214,-0.021654879674315453,-0.04579031094908714,-0.05062136600022615,0.11675298218907394,0.052155346788111956,-0.027611654181941336,0.010737865515199285,-0.10584467436410927,-0.053689327575997314,-0.07056311624273937,-0.004601942363656963,-0.009203884727313927,0.0876073472192468,0.09899152997307537,-0.021305288720634072,-0.04929191598405873
38.21839774600005,0.0,0.0,0.014180800172453928,-0.001090830782496456,0.007635815477475192,-0.04386901009330644,0.02244460981518004,-0.9987851367755118,1.0,1.0,0.0,-0.0,-0.0,-0.0,-0.0,-0.0,-0.0,0.0,0.0,-0.0,0.0,0.0,0.0,0.0,-0.1691598743200302,0.0025337189435958862,0.12850597500801086,0.02449275553226471,0.23171551525592804,0.3521909713745117,0.2988407015800476,-0.29907241463661194,-0.02998202107846737,-0.08177197724580765,-0.06981971114873886,0.21957185864448547,0.0695514902472496,0.03898826241493225,-0.03984650759957731,0.12280647829174995,0.04050407372415066,-0.03314672037959099,0.0020783431828022003,-0.1198209673166275,-0.06718508899211884,-0.07476810365915298,-0.007495505269616842,-0.01625420432537794,0.10471812076866627,0.06658667046576738,-0.021882036700844765,-0.04610347002744675,-0.03984650759957731,0.12280647829174995,0.04050407372415066,-0.03314672037959099,0.0020783431828022003,-0.1198209673166275,-0.06718508899211884,-0.07476810365915298,-0.007495505269616842,-0.01625420432537794,0.10471812076866627,0.06658667046576738,-0.021882036700844765,-0.04610347002744675,-0.05062136600022615,0.11675298218907394,0.052155346788111956,-0.027611654181941336,0.010737865515199285,-0.10584467436410927,-0.053689327575997314,-0.07056311624273937,-0.004601942363656963,-0.009203884727313927,0.0876073472192468,0.09899152997307537,-0.021305288720634072,-0.04929191598405873
38.23824823699999,0.0,0.0,0.018544123302439753,0.002181661564992912,-0.006544984694978736,-0.04386999181780953,0.02142487972497675,-0.998807488131059,1.0,1.0,0.0,-0.0,-0.0,-0.0,-0.0,-0.0,-0.0,0.0,0.0,-0.0,0.0,0.0,0.0,0.0,-0.1688036322593689,0.0023826435208320618,0.1291445642709732,0.02280770242214203,0.2329663336277008,0.35197558999061584,0.29865187406539917,-0.2985571622848511,-0.029410334303975105,-0.08087952435016632,-0.06899848580360413,0.21920347213745117,0.06911707669496536,0.03837508708238602,-0.03975744708441198,0.122768709436059,0.04066372103989124,-0.03356798365712166,0.002391047775745392,-0.11987481266260147,-0.06723229587078094,-0.07463929057121277,-0.007352583575993776,-0.01603109110146761,0.10492342710494995,0.06649457383900881,-0.021990640088915825,-0.046256763860583305,-0.03975744708441198,0.122768709436059,0.04066372103989124,-0.03356798365712166,0.002391047775745392,-0.11987481266260147,-0.06723229587078094,-0.07463929057121277,-0.007352583575993776,-0.01603109110146761,0.10492342710494995,0.06649457383900881,-0.021990640088915825,-0.046256763860583305,-0.05062136600022615,0.11675298218907394,0.052155346788111956,-0.027611654181941336,0.010737865515199285,-0.10584467436410927,-0.053689327575997314,-0.07056311624273937,-0.004601942363656963,-0.009203884727313927,0.0876073472192468,0.09899152997307537,-0.021305288720634072,-0.04929191598405873
38.258350278999956,0.0,0.0,0.013089969389957472,0.00545415391248228,-0.004363323129985824,-0.04386999181780953,0.02142487972497675,-0.998807488131059,1.0,1.0,0.0,-0.0,-0.0,-0.0,-0.0,-0.0,-0.0,0.0,0.0,-0.0,0.0,0.0,0.0,0.0,-0.16878925263881683,0.002861320972442627,0.12868408858776093,0.022708885371685028,0.23233753442764282,0.3523504436016083,0.2985267639160156,-0.29884716868400574,-0.029417337849736214,-0.08098392188549042,-0.06934972107410431,0.21908029913902283,0.06883887946605682,0.038063451647758484,-0.03975385217927396,0.12288837879896164,0.04054860211908817,-0.03359268791973591,0.002233847975730896,-0.11978109925985336,-0.06726357340812683,-0.07471179217100143,-0.007354334462434053,-0.016057190485298634,0.1048356182873249,0.06646378058940172,-0.02206018939614296,-0.04633467271924019,-0.03975385217927396,0.12288837879896164,0.04054860211908817,-0.03359268791973591,0.002233847975730896,-0.11978109925985336,-0.06726357340812683,-0.07471179217100143,-0.007354334462434053,-0.016057190485298634,0.1048356182873249,0.06646378058940172,-0.02206018939614296,-0.04633467271924019,-0.05062136600022615,0.11675298218907394,0.052155346788111956,-0.027611654181941336,0.010737865515199285,-0.10584467436410927,-0.053689327575997314,-0.07056311624273937,-0.004601942363656963,-0.009203884727313927,0.0876073472192468,0.09899152997307537,-0.021305288720634072,-0.04929191598405873
