time_s,forward_cmd_m_s,yaw_cmd_rad_s,gyro_x,gyro_y,gyro_z,grav_x,grav_y,grav_z,left_contact,right_contact,left_hip_yaw_velocity_rad_s,left_hip_roll_velocity_rad_s,left_hip_pitch_velocity_rad_s,left_knee_velocity_rad_s,left_ankle_velocity_rad_s,neck_pitch_velocity_rad_s,head_pitch_velocity_rad_s,head_yaw_velocity_rad_s,head_roll_velocity_rad_s,right_hip_yaw_velocity_rad_s,right_hip_roll_velocity_rad_s,right_hip_pitch_velocity_rad_s,right_knee_velocity_rad_s,right_ankle_velocity_rad_s,left_hip_yaw_action,left_hip_roll_action,left_hip_pitch_action,left_knee_action,left_ankle_action,neck_pitch_action,head_pitch_action,head_yaw_action,head_roll_action,right_hip_yaw_action,right_hip_roll_action,right_hip_pitch_action,right_knee_action,right_ankle_action,left_hip_yaw_unclipped_target_rad,left_hip_roll_unclipped_target_rad,left_hip_pitch_unclipped_target_rad,left_knee_unclipped_target_rad,left_ankle_unclipped_target_rad,neck_pitch_unclipped_target_rad,head_pitch_unclipped_target_rad,head_yaw_unclipped_target_rad,head_roll_unclipped_target_rad,right_hip_yaw_unclipped_target_rad,right_hip_roll_unclipped_target_rad,right_hip_pitch_unclipped_target_rad,right_knee_unclipped_target_rad,right_ankle_unclipped_target_rad,left_hip_yaw_target_rad,left_hip_roll_target_rad,left_hip_pitch_target_rad,left_knee_target_rad,left_ankle_target_rad,neck_pitch_target_rad,head_pitch_target_rad,head_yaw_target_rad,head_roll_target_rad,right_hip_yaw_target_rad,right_hip_roll_target_rad,right_hip_pitch_target_rad,right_knee_target_rad,right_ankle_target_rad,left_hip_yaw_actual_rad,left_hip_roll_actual_rad,left_hip_pitch_actual_rad,left_knee_actual_rad,left_ankle_actual_rad,neck_pitch_actual_rad,head_pitch_actual_rad,head_yaw_actual_rad,head_roll_actual_rad,right_hip_yaw_actual_rad,right_hip_roll_actual_rad,right_hip_pitch_actual_rad,right_knee_actual_rad,right_ankle_actual_rad,telemetry_joint,telemetry_servo_id,voltage_V,temperature_raw,load_word_raw,current_word_raw
21.612652176999973,0.0,0.0,-0.03490658503988659,0.004363323129985824,0.007635815477475192,-0.07446890196375076,-0.11527377975210736,-0.9905384083123561,1.0,1.0,0.0,-0.0,-0.0,-0.0,-0.0,-0.0,-0.0,0.0,0.0,-0.0,0.0,0.0,0.0,0.0,0.011521095409989357,-0.06811745464801788,0.10938775539398193,0.12236016988754272,0.1867143213748932,-0.038121290504932404,0.025198519229888916,0.05239085853099823,-0.0016605202108621597,-0.01635759323835373,-0.026771653443574905,0.17541886866092682,0.22609300911426544,0.34519147872924805,0.005323734832927585,0.10514368489384651,0.035724518820643425,-0.008679866790771484,-0.009171955287456512,-0.21739903278648853,-0.1355956345796585,0.013097714632749557,-0.00041513005271553993,9.939167648553848e-05,0.11548013519495726,0.05554842296987772,0.017253343015909195,0.030447334051132202,0.005323734832927585,0.10514368489384651,0.035724518820643425,-0.008679866790771484,-0.009171955287456512,-0.21739903278648853,-0.1355956345796585,0.013097714632749557,-0.00041513005271553993,9.939167648553848e-05,0.11548013519495726,0.05554842296987772,0.0,0.030447334051132202,0.004601942363656963,0.1182869629769593,0.012271846303085088,-0.003067961575771161,-0.08590292412159606,-0.2147573103039897,-0.13959225169759337,0.003067961575771161,-0.003067961575771161,0.007669903939428124,0.11521900140118814,0.010020644275708146,-0.0013635384781204157,-0.06463172386291498,left_hip_pitch,22,7.1,30,1047,1
21.62134726399995,0.0,0.0,-0.02399827721492203,0.008726646259971648,0.0,-0.07447762179192992,-0.11426703617391988,-0.990654393972109,1.0,1.0,0.0,-0.0,-0.0,-0.07671776931843206,0.15343553863686413,-0.0,-0.0,0.0,0.0,-0.0,0.0,0.0,-0.15343553863686413,0.0,0.028718506917357445,-0.06389161944389343,0.0737471729516983,0.054331742227077484,0.11933247745037079,-0.06812535971403122,0.029202669858932495,0.04310465604066849,0.030599821358919144,-0.003766000270843506,-0.025492198765277863,0.1906425803899765,0.2505700886249542,0.4090818166732788,0.009623087709769607,0.10620014369487762,0.026814373210072517,-0.025686973705887794,-0.026017416268587112,-0.22490005008876324,-0.1345945969223976,0.010776164010167122,0.007649955339729786,0.0032472899183630943,0.11579999886453152,0.05935435090214014,0.02337261289358139,0.04641991853713989,0.009623087709769607,0.10620014369487762,0.026814373210072517,-0.025686973705887794,-0.026017416268587112,-0.22490005008876324,-0.1345945969223976,0.010776164010167122,0.007649955339729786,0.0032472899183630943,0.11579999886453152,0.05935435090214014,0.0,0.04641991853713989,0.004601942363656963,0.1182869629769593,0.012271846303085088,-0.006135923151542766,-0.0813009817579391,-0.2147573103039897,-0.13959225169759337,0.003067961575771161,-0.003067961575771161,0.007669903939428124,0.11521900140118814,0.010020644275708146,-0.005965480841777379,-0.06463172386291498,,,,,,
21.64127224999993,0.0,0.0,-0.013089969389957472,0.018544123302439753,-0.008726646259971648,-0.0744862671336145,-0.11325994043604397,-0.9907693888594478,1.0,1.0,0.0,-0.0,-0.0,-0.30687107727372825,0.30687107727372825,-0.0,-0.0,0.0,0.0,-0.0,0.0,0.07671776931843206,-0.2301533079552962,0.0,0.029343286529183388,-0.06577393412590027,0.06669940054416656,0.03716263175010681,0.11995461583137512,-0.07941044867038727,0.031582310795784,0.0573391392827034,0.039922792464494705,0.0061899591237306595,-0.029124658554792404,0.20129668712615967,0.2512162923812866,0.4203941822052002,0.009779282612726092,0.10572956502437592,0.025052430108189583,-0.029979251325130463,-0.02586188167333603,-0.22772132232785225,-0.13399968668818474,0.01433478482067585,0.009980698116123676,0.005736279767006636,0.11489188391715288,0.06201787758618593,0.02353416383266449,0.04924800992012024,0.009779282612726092,0.10572956502437592,0.025052430108189583,-0.029979251325130463,-0.02586188167333603,-0.22772132232785225,-0.13399968668818474,0.01433478482067585,0.009980698116123676,0.005736279767006636,0.11489188391715288,0.06201787758618593,0.0,0.04924800992012024,0.004601942363656963,0.1182869629769593,0.012271846303085088,-0.01380582709097089,-0.07516505860639633,-0.2147573103039897,-0.13959225169759337,0.003067961575771161,-0.003067961575771161,0.007669903939428124,0.11521900140118814,0.011554625063593504,-0.010567423205434343,-0.06463172386291498,,,,,,
21.660677598999996,0.0,0.0,0.16035212502697901,0.03490658503988659,-0.019634954084936207,-0.20046310353499228,-0.11225933797959568,-0.9732483676623875,1.0,1.0,0.0,-0.0,-0.0,-0.4603066159105924,0.30687107727372825,-0.0,-0.0,0.0,0.0,-0.0,0.0,0.07671776931843206,-0.30687107727372825,0.0,-0.09883636981248856,-0.1405109316110611,-0.03372427821159363,-0.25959181785583496,-0.0744081437587738,-0.3419305682182312,-0.21739694476127625,0.24326634407043457,0.23863551020622253,0.07850560545921326,-0.02061411365866661,0.5131809115409851,0.6963636875152588,0.803139865398407,-0.022265631472691894,0.08704531565308571,-5.348958075046539e-05,-0.1041678637266159,-0.07445257157087326,-0.29335135221481323,-0.1962445005774498,0.06081658601760864,0.059658877551555634,0.023815191350877285,0.11701952014118433,0.1399889336898923,0.13482101261615753,0.14493443071842194,-0.022265631472691894,0.08704531565308571,-5.348958075046539e-05,-0.1041678637266159,-0.07445257157087326,-0.29335135221481323,-0.1962445005774498,0.06081658601760864,0.059658877551555634,0.023815191350877285,0.11701952014118433,0.1399889336898923,0.0,0.14493443071842194,0.004601942363656963,0.1182869629769593,0.012271846303085088,-0.023009711818284817,-0.0674951546669682,-0.2147573103039897,-0.13805827090970757,0.003067961575771161,-0.003067961575771161,0.007669903939428124,0.11521900140118814,0.013088605851479307,-0.021305288720634072,-0.06463172386291498,,,,,,
21.680580379999924,0.0,0.0,0.06217735460229799,0.04581489286485115,-0.030543261909900768,-0.19947822384764075,-0.11327155424514275,-0.9733334440002974,1.0,1.0,0.0,-0.0,0.07671776931843206,-0.4603066159105924,0.3835888465921603,-0.0,0.07671776931843206,0.0,0.0,-0.0,0.0,0.15343553863686413,-0.4603066159105924,0.07671776931843206,-0.10602046549320221,-0.20590640604496002,-0.186138316988945,-0.3008340299129486,-0.01954936981201172,-0.3620779812335968,-0.38132742047309875,0.22186017036437988,0.3400745391845703,0.11524726450443268,-0.08966442942619324,0.6234295964241028,0.8303627967834473,0.901526689529419,-0.024061655392870307,0.07069644704461098,-0.03815699927508831,-0.11447841674089432,-0.06073787808418274,-0.29838820546865463,-0.23722711950540543,0.05546504259109497,0.08501863479614258,0.03300060611218214,0.09975694119930267,0.1675511049106717,0.16832078993320465,0.16953113675117493,-0.024061655392870307,0.07069644704461098,-0.03815699927508831,-0.11447841674089432,-0.06073787808418274,-0.29838820546865463,-0.23722711950540543,0.05546504259109497,0.08501863479614258,0.03300060611218214,0.09975694119930267,0.1675511049106717,0.0,0.16953113675117493,0.004601942363656963,0.11675298218907394,0.01380582709097089,-0.0322135965455983,-0.05982525072754008,-0.2147573103039897,-0.1365242901218222,0.004601942363656963,-0.003067961575771161,0.007669903939428124,0.11521900140118814,0.016156567427250468,-0.028975192660062196,-0.06156376228714382,,,,,,
21.702453945000002,0.0,0.0,0.20507618710933373,0.05890486225480862,-0.05345070834232634,-0.19846993776288943,-0.11527294365016306,-0.9733045937765942,1.0,1.0,0.0,-0.15343553863686413,0.07671776931843206,-0.3835888465921603,0.4603066159105924,-0.0,0.07671776931843206,0.07671776931843206,0.0,-0.0,0.0,0.07671776931843206,-0.4603066159105924,0.2301533079552962,-0.10481063276529312,-0.2154184877872467,-0.20426854491233826,-0.304865300655365,-0.009907230734825134,-0.33142322301864624,-0.46336424350738525,0.2176656275987625,0.33291196823120117,0.13323533535003662,-0.12559974193572998,0.6218360662460327,0.8659982681274414,0.9284306764602661,-0.023759197210893035,0.0683184266090393,-0.04268955625593662,-0.11548623442649841,-0.05832734331488609,-0.290724515914917,-0.25773632526397705,0.05441640689969063,0.08322799205780029,0.037497623823583126,0.09077311307191849,0.1671527223661542,0.17722965776920319,0.17625713348388672,-0.023759197210893035,0.0683184266090393,-0.04268955625593662,-0.11548623442649841,-0.05832734331488609,-0.290724515914917,-0.25773632526397705,0.05441640689969063,0.08322799205780029,0.037497623823583126,0.09077311307191849,0.1671527223661542,0.0,0.17625713348388672,0.004601942363656963,0.11215103982541698,0.015339807878856249,-0.04141748127291223,-0.052155346788111956,-0.2162912910918755,-0.1349903093339364,0.006135923151542766,-0.003067961575771161,0.007669903939428124,0.11521900140118814,0.019224529003022073,-0.03971305817526148,-0.05542783913560105,right_hip_pitch,12,6.9,31,1182,6
21.720855909999955,0.0,0.0,0.210530341021816,0.05890486225480862,-0.08399397025222712,-0.1974838356447908,-0.11628489814617123,-0.9733847939649334,1.0,1.0,0.0,-0.30687107727372825,0.07671776931843206,-0.3835888465921603,0.3835888465921603,-0.07671776931843206,0.07671776931843206,0.15343553863686413,0.07671776931843206,-0.07671776931843206,0.0,0.3835888465921603,-0.4603066159105924,0.3835888465921603,-0.11272842437028885,-0.23598331212997437,-0.22340311110019684,-0.3067767918109894,0.0031807273626327515,-0.31823888421058655,-0.5122473239898682,0.20524737238883972,0.34205788373947144,0.12148450314998627,-0.1332298368215561,0.6471514105796814,0.8860678672790527,0.9136335849761963,-0.025738645112141967,0.06317722052335739,-0.04747319780290127,-0.11596410721540451,-0.05505535379052162,-0.28742843121290207,-0.2699570953845978,0.05131184309720993,0.08551447093486786,0.03455991577357054,0.08886558935046196,0.17348155844956636,0.18224705755710602,0.17255786061286926,-0.025738645112141967,0.06317722052335739,-0.04747319780290127,-0.11596410721540451,-0.05505535379052162,-0.28742843121290207,-0.2699570953845978,0.05131184309720993,0.08551447093486786,0.03455991577357054,0.08886558935046196,0.17348155844956636,0.0,0.17255786061286926,0.004601942363656963,0.10448113588598885,0.01687378866674205,-0.04755340442445499,-0.04448544284868339,-0.22242721424341783,-0.1349903093339364,0.007669903939428124,-0.0015339807878858025,0.006135923151542766,0.11521900140118814,0.026894432942450197,-0.044315000538918445,-0.047757935196172926,,,,,,
21.74081271299997,0.0,0.0,-0.07090400086226964,0.07308566242726255,-0.09381144729469522,-0.19555597373762956,-0.11633073309520527,-0.973768464098658,1.0,1.0,0.0,-0.3835888465921603,0.3835888465921603,-0.30687107727372825,0.30687107727372825,-0.5370243852290244,-0.07671776931843206,0.15343553863686413,0.07671776931843206,-0.0,0.0,0.5370243852290244,-0.15343553863686413,0.3835888465921603,-0.11280504614114761,-0.29504889249801636,-0.2851966917514801,-0.2299915850162506,0.08556067943572998,-0.3469429314136505,-0.5886480212211609,0.15108786523342133,0.46478012204170227,0.15083833038806915,-0.101617731153965,0.8162667751312256,0.8795677423477173,0.848967969417572,-0.025757800554856658,0.04841082543134689,-0.06292159296572208,-0.09676780551671982,-0.034460365772247314,-0.29460444301366806,-0.28905726969242096,0.03777196630835533,0.11619503051042557,0.04189837258309126,0.09676861576735973,0.2157603995874524,0.18062202632427216,0.1563914567232132,-0.025757800554856658,0.04841082543134689,-0.06292159296572208,-0.09676780551671982,-0.034460365772247314,-0.29460444301366806,-0.28905726969242096,0.03777196630835533,0.11619503051042557,0.04189837258309126,0.09676861576735973,0.2157603995874524,0.0,0.1563914567232132,0.003067961575771161,0.09681123194656029,0.026077673394055978,-0.053689327575997314,-0.038349519697141066,-0.2346990605465029,-0.13805827090970757,0.01380582709097089,0.0,0.009203884727313927,0.11521900140118814,0.03763229845764948,-0.04584898132680425,-0.038554050468859,,,,,,
21.760424497999907,0.0,0.0,-0.20507618710933373,0.04799655442984406,-0.05999569303730508,-0.06730976887152143,-0.11320279310210422,-0.9912893233805883,1.0,1.0,-0.15343553863686413,-0.2301533079552962,0.07671776931843206,-0.30687107727372825,0.15343553863686413,-0.6904599238658886,-0.2301533079552962,0.3835888465921603,0.07671776931843206,0.30687107727372825,-0.2301533079552962,0.6137421545474565,0.0,0.5370243852290244,-0.06075512617826462,-0.140842005610466,-0.028201958164572716,-0.03984946012496948,0.23989003896713257,-0.09156721830368042,-0.3493943512439728,0.036664143204689026,0.1718825101852417,0.1893131583929062,-0.08473537862300873,0.6085074543952942,0.22759896516799927,0.48296356201171875,-0.012745320564135909,0.08696254715323448,0.0013270904310047626,-0.049232274293899536,0.0041219741106033325,-0.23076051473617554,-0.22924385219812393,0.009166035801172256,0.042970627546310425,0.05151707958430052,0.1009892039000988,0.16382056940346956,0.01762983202934265,0.06489035487174988,-0.012745320564135909,0.08696254715323448,0.0013270904310047626,-0.049232274293899536,0.0041219741106033325,-0.23076051473617554,-0.22924385219812393,0.009166035801172256,0.042970627546310425,0.05151707958430052,0.1009892039000988,0.16382056940346956,0.0,0.06489035487174988,-0.003067961575771161,0.09067530879501796,0.026077673394055978,-0.05675728915176892,-0.035281558121369905,-0.24697090684958845,-0.14266021327336453,0.021475731030399015,0.003067961575771161,0.01687378866674205,0.11061705903753118,0.04837016397284921,-0.04584898132680425,-0.027816184953659714,,,,,,
21.78037407699992,0.0,0.0,-0.49414634447089456,-0.04690572364734761,-0.08617563181722002,-0.0694090060101299,-0.10411350901519485,-0.9921404976742099,1.0,1.0,-0.3835888465921603,-0.3835888465921603,-0.07671776931843206,-0.2301533079552962,0.2301533079552962,-0.6137421545474565,-0.3835888465921603,0.3835888465921603,0.30687107727372825,0.3835888465921603,-0.30687107727372825,0.6137421545474565,0.0,0.5370243852290244,-0.08255622535943985,-0.16055837273597717,0.0564696379005909,0.05518650263547897,0.34798675775527954,-0.1097823828458786,-0.25061434507369995,0.07034453004598618,0.13251034915447235,0.15996497869491577,-0.05137905478477478,0.7088717818260193,-0.023906201124191284,0.30156421661376953,-0.018195595359429717,0.08203345537185669,0.022494989447295666,-0.025473283603787422,0.031146153807640076,-0.23531430587172508,-0.20454885065555573,0.017586132511496544,0.03312758728861809,0.044180034659802914,0.10932828485965729,0.18891165126115084,-0.04524645954370499,0.019540518522262573,-0.018195595359429717,0.08203345537185669,0.022494989447295666,-0.025473283603787422,0.031146153807640076,-0.23531430587172508,-0.20454885065555573,0.017586132511496544,0.03312758728861809,0.044180034659802914,0.10932828485965729,0.18891165126115084,-0.04524645954370499,0.019540518522262573,-0.010737865515199285,0.08300540485558984,0.024543692606170175,-0.06442719309119704,-0.02914563496982714,-0.25924275315267353,-0.15186409800067846,0.02914563496982714,0.009203884727313927,0.024543692606170175,0.10448113588598885,0.06217599106381966,-0.04584898132680425,-0.015544338650574627,,,,,,
21.801843178000013,0.0,0.0,-0.44724062082354693,-0.2007128639793479,-0.22907446432425577,-0.07244121090727025,-0.09590808204624512,-0.9927506790531543,1.0,1.0,-0.3835888465921603,-0.3835888465921603,-0.07671776931843206,-0.3835888465921603,0.15343553863686413,-0.6137421545474565,-0.4603066159105924,0.3835888465921603,0.30687107727372825,0.3835888465921603,-0.15343553863686413,0.6137421545474565,0.0,0.6904599238658886,-0.09585367143154144,-0.16136611998081207,0.14761090278625488,0.08780412375926971,0.4137577414512634,-0.16731370985507965,-0.20014718174934387,0.11057315021753311,0.10966870188713074,0.1582815945148468,-0.06431815028190613,0.7624300122261047,-0.15423619747161865,0.18579302728176117,-0.021519956877455115,0.08183151856064796,0.04528030566871166,-0.017318878322839737,0.04758889973163605,-0.24969713762402534,-0.1919320598244667,0.027643287554383278,0.027417175471782684,0.04375918861478567,0.10609351098537445,0.2023012088611722,-0.07782895863056183,-0.009402278810739517,-0.021519956877455115,0.08183151856064796,0.04528030566871166,-0.017318878322839737,0.04758889973163605,-0.24969713762402534,-0.1919320598244667,0.027643287554383278,0.027417175471782684,0.04375918861478567,0.10609351098537445,0.2023012088611722,-0.07782895863056183,-0.009402278810739517,-0.018407769454627854,0.07686948170404707,0.021475731030399015,-0.07209709703062517,-0.027611654181941336,-0.2715145994557586,-0.16413594430376355,0.03681553890925526,0.01687378866674205,0.0322135965455983,0.09987919352233189,0.07444783736690519,-0.04584898132680425,-0.0017385115596037365,left_knee,23,6.1,30,1182,5
21.82058847499991,0.0,0.0,-0.4363323129985824,-0.20289452554434081,-0.2552544031041707,-0.07547182568169086,-0.08669061058032058,-0.99337240829685,1.0,1.0,-0.30687107727372825,-0.2301533079552962,-0.07671776931843206,-0.30687107727372825,0.07671776931843206,-0.5370243852290244,-0.6137421545474565,0.2301533079552962,0.4603066159105924,0.3835888465921603,-0.15343553863686413,0.6904599238658886,0.0,0.7671776931843206,-0.11532855778932571,-0.16544313728809357,0.19886131584644318,0.09092870354652405,0.4680480360984802,-0.2074340581893921,-0.1660570353269577,0.137881338596344,0.11140169203281403,0.1603907346725464,-0.06445920467376709,0.8034655451774597,-0.23118698596954346,0.10597259551286697,-0.026388678466901183,0.08081226423382759,0.058092908933758736,-0.016537733376026154,0.06116147339344025,-0.25972722470760345,-0.18340952321887016,0.034470334649086,0.027850423008203506,0.04428647365421057,0.10605824738740921,0.21256009209901094,-0.09706665575504303,-0.029357386752963066,-0.026388678466901183,0.08081226423382759,0.058092908933758736,-0.016537733376026154,0.06116147339344025,-0.25972722470760345,-0.18340952321887016,0.034470334649086,0.027850423008203506,0.04428647365421057,0.10605824738740921,0.21256009209901094,-0.09706665575504303,-0.029357386752963066,-0.021475731030399015,0.07380152012827591,0.021475731030399015,-0.07669903939428213,-0.024543692606170175,-0.2822524649709579,-0.17640779060684864,0.04141748127291223,0.027611654181941336,0.03988350048502687,0.09834521273444609,0.08671968366999028,-0.04584898132680425,0.015135277107138315,,,,,,
21.84063474499999,0.0,0.0,-0.5214171140333059,-0.016362461737446838,-0.10581058590215622,-0.07552876611765222,-0.07757008412083202,-0.9941218675485577,1.0,1.0,-0.15343553863686413,-0.15343553863686413,-0.07671776931843206,-0.15343553863686413,0.15343553863686413,-0.4603066159105924,-0.7671776931843206,0.15343553863686413,0.5370243852290244,0.30687107727372825,0.0,0.5370243852290244,0.0,0.8438954625027527,-0.11796176433563232,-0.16459880769252777,0.22800052165985107,0.0875127762556076,0.49878817796707153,-0.23506855964660645,-0.12881818413734436,0.15944935381412506,0.14659838378429413,0.1629367172718048,-0.05160945653915405,0.8371694684028625,-0.31072261929512024,0.053842417895793915,-0.027046980103477836,0.08102334663271904,0.06537771038711071,-0.017391715198755264,0.06884650886058807,-0.26663585007190704,-0.17409981042146683,0.039862338453531265,0.03664959594607353,0.04492296930402517,0.10927068442106247,0.22098607290536165,-0.11695056408643723,-0.04238993115723133,-0.027046980103477836,0.08102334663271904,0.06537771038711071,-0.017391715198755264,0.06884650886058807,-0.26663585007190704,-0.17409981042146683,0.039862338453531265,0.03664959594607353,0.04492296930402517,0.10927068442106247,0.22098607290536165,-0.11695056408643723,-0.04238993115723133,-0.023009711818284817,0.07226753934039011,0.019941750242513212,-0.07976700097005329,-0.023009711818284817,-0.29145634969827183,-0.19174759848570533,0.04295146206079803,0.03681553890925526,0.04448544284868339,0.09834521273444609,0.09899152997307537,-0.04584898132680425,0.032009065773880366,,,,,,
21.86112488899994,0.0,0.0,-0.4908738521234052,0.01090830782496456,-0.1265363707695889,-0.07550273593794792,-0.068360585241115,-0.994799561344584,1.0,1.0,0.0,-0.15343553863686413,-0.0,-0.07671776931843206,0.30687107727372825,-0.2301533079552962,-0.7671776931843206,0.07671776931843206,0.5370243852290244,0.30687107727372825,0.0,0.5370243852290244,0.0,0.7671776931843206,-0.12006847560405731,-0.15319892764091492,0.2503896653652191,0.0988481268286705,0.5232341885566711,-0.25840243697166443,-0.11496894806623459,0.18536023795604706,0.18823009729385376,0.15807682275772095,-0.03599361330270767,0.8402819633483887,-0.34390631318092346,0.04352950304746628,-0.027573657920584083,0.08387331664562225,0.07097499631345272,-0.01455787755548954,0.07495801150798798,-0.27246931940317154,-0.17063750140368938,0.046340059489011765,0.04705752432346344,0.04370799567550421,0.11317464523017406,0.22176419664174318,-0.12524648755788803,-0.04496815986931324,-0.027573657920584083,0.08387331664562225,0.07097499631345272,-0.01455787755548954,0.07495801150798798,-0.27246931940317154,-0.17063750140368938,0.046340059489011765,0.04705752432346344,0.04370799567550421,0.11317464523017406,0.22176419664174318,-0.12524648755788803,-0.04496815986931324,-0.023009711818284817,0.07073355855250475,0.019941750242513212,-0.07976700097005329,-0.015339807878856249,-0.2975922728498146,-0.20708740636456158,0.04601942363656919,0.04755340442445499,0.04908738521234035,0.09834521273444609,0.10819541470038929,-0.047382962114689606,0.047348873652736614,,,,,,
21.880767064999986,0.0,0.0,-0.4799655442984406,-0.12435470920459599,-0.2399827721492203,-0.07859115248310919,-0.0591985304418225,-0.9951477100133955,1.0,1.0,0.0,-0.0,-0.0,-0.0,0.4603066159105924,-0.15343553863686413,-0.6904599238658886,0.15343553863686413,0.4603066159105924,0.07671776931843206,0.07671776931843206,0.3835888465921603,-0.07671776931843206,0.7671776931843206,-0.12907454371452332,-0.13658994436264038,0.27515697479248047,0.11342918127775192,0.5557448267936707,-0.2708282470703125,-0.12109390646219254,0.2055959701538086,0.22856873273849487,0.15781433880329132,-0.02033904381096363,0.8373333215713501,-0.3552744686603546,0.029698967933654785,-0.029825174948200583,0.08802556246519089,0.07716682367026806,-0.010912613943219185,0.08308567106723785,-0.27557577192783356,-0.17216874100267887,0.05139899253845215,0.05714218318462372,0.0436423746868968,0.11708828760311007,0.22102703619748354,-0.12808852642774582,-0.04842579364776611,-0.029825174948200583,0.08802556246519089,0.07716682367026806,-0.010912613943219185,0.08308567106723785,-0.27557577192783356,-0.17216874100267887,0.05139899253845215,0.05714218318462372,0.0436423746868968,0.11708828760311007,0.22102703619748354,-0.12808852642774582,-0.04842579364776611,-0.023009711818284817,0.07226753934039011,0.019941750242513212,-0.07976700097005329,-0.006135923151542766,-0.30066023442558576,-0.21935925266764666,0.04601942363656919,0.05829126993965428,0.04908738521234035,0.09987919352233189,0.11739929942770277,-0.047382962114689606,0.06268868153159331,,,,,,
21.902170087999934,0.0,0.0,-0.45705809786601503,-0.19962203319685143,-0.2825251726665821,-0.08158696220505349,-0.050991851378158426,-0.9953609389016524,1.0,1.0,0.0,0.07671776931843206,-0.0,-0.0,0.5370243852290244,-0.0,-0.5370243852290244,0.0,0.6137421545474565,-0.0,0.07671776931843206,0.4603066159105924,-0.07671776931843206,0.6904599238658886,-0.1460861712694168,-0.11293616890907288,0.28648051619529724,0.12449318915605545,0.60106360912323,-0.2681860029697418,-0.12831524014472961,0.22421017289161682,0.26364317536354065,0.15891976654529572,-0.0108781848102808,0.812868058681488,-0.3572315275669098,0.020478375256061554,-0.03407808183692396,0.09393900632858276,0.07999770902097225,-0.008146611973643303,0.09441536664962769,-0.2749152109026909,-0.17397407442331314,0.056052543222904205,0.06591079384088516,0.0439187316223979,0.11945350235328078,0.21491072047501802,-0.1285777911543846,-0.05073094181716442,-0.03407808183692396,0.09393900632858276,0.07999770902097225,-0.008146611973643303,0.09441536664962769,-0.2749152109026909,-0.17397407442331314,0.056052543222904205,0.06591079384088516,0.0439187316223979,0.11945350235328078,0.21491072047501802,-0.1285777911543846,-0.05073094181716442,-0.024543692606170175,0.07226753934039011,0.019941750242513212,-0.07976700097005329,0.006135923151542766,-0.30066023442558576,-0.2285631373949606,0.04448544284868339,0.07056311624273937,0.05062136600022615,0.10141317431021725,0.1266031841550167,-0.05045092369046121,0.0749605278346784,right_knee,13,6.1,30,23,0
21.920882105999908,0.0,0.0,-0.3687008044838021,-0.21598449493429828,-0.19198621771937624,-0.08574924789232787,-0.04491627270550508,-0.9953037701788057,1.0,1.0,-0.07671776931843206,0.07671776931843206,-0.0,-0.0,0.7671776931843206,-0.0,-0.30687107727372825,-0.07671776931843206,0.6904599238658886,0.07671776931843206,0.07671776931843206,0.3835888465921603,-0.15343553863686413,0.6137421545474565,-0.15282894670963287,-0.08532334864139557,0.2627638280391693,0.12068934738636017,0.6299363374710083,-0.2582995295524597,-0.13444429636001587,0.22090964019298553,0.2895696461200714,0.15863169729709625,-0.023442838340997696,0.7929291129112244,-0.31955650448799133,0.02409273386001587,-0.03576377569697797,0.10084221139550209,0.07406853698194027,-0.009097572416067123,0.10163354873657227,-0.27244359254837036,-0.1755063384771347,0.055227410048246384,0.07239241153001785,0.043846714310348034,0.11631233897060156,0.2099259840324521,-0.119159035384655,-0.04982735216617584,-0.03576377569697797,0.10084221139550209,0.07406853698194027,-0.009097572416067123,0.10163354873657227,-0.27244359254837036,-0.1755063384771347,0.055227410048246384,0.07239241153001785,0.043846714310348034,0.11631233897060156,0.2099259840324521,-0.119159035384655,-0.04982735216617584,-0.024543692606170175,0.07686948170404707,0.019941750242513212,-0.07976700097005329,0.019941750242513212,-0.30066023442558576,-0.23163109897073175,0.04448544284868339,0.08283496254582445,0.05062136600022615,0.10448113588598885,0.13273910730655947,-0.058120827629889335,0.08723237413776348,,,,,,
21.940899688999934,0.0,0.0,-0.2628902185816459,-0.23125612588924865,-0.10253809355466686,-0.08981976997378902,-0.03980648896565649,-0.9951622241414123,1.0,1.0,0.0,0.2301533079552962,-0.0,-0.0,0.3835888465921603,-0.0,-0.0,0.0,0.3835888465921603,-0.0,0.15343553863686413,0.3835888465921603,-0.4603066159105924,0.5370243852290244,-0.1543688029050827,-0.04981023445725441,0.25327345728874207,0.1312076300382614,0.6620027422904968,-0.2430172562599182,-0.1444336175918579,0.21656501293182373,0.27876725792884827,0.15919941663742065,-0.05053451657295227,0.7618203163146973,-0.2850838303565979,0.02513737976551056,-0.03614873974584043,0.10972048994153738,0.07169594429433346,-0.006468001753091812,0.1096501499414444,-0.268623024225235,-0.17800366878509521,0.05414125323295593,0.06969181448221207,0.043988644145429134,0.10953941941261292,0.20214878488332033,-0.11054086685180664,-0.04956619068980217,-0.03614873974584043,0.10972048994153738,0.07169594429433346,-0.006468001753091812,0.1096501499414444,-0.268623024225235,-0.17800366878509521,0.05414125323295593,0.06969181448221207,0.043988644145429134,0.10953941941261292,0.20214878488332033,-0.11054086685180664,-0.04956619068980217,-0.024543692606170175,0.0845393856434752,0.019941750242513212,-0.07976700097005329,0.027611654181941336,-0.30066023442558576,-0.2285631373949606,0.04448544284868339,0.08897088569736722,0.05062136600022615,0.10754909746176002,0.1404090112459876,-0.06885869314508862,0.09643625886507741,,,,,,
21.96118198900001,0.0,0.0,-0.24652775684419906,-0.2203478180642841,-0.1810779098944117,-0.09387828414189951,-0.036734980751178065,-0.9949057286777393,1.0,1.0,0.0,0.30687107727372825,-0.0,0.15343553863686413,0.4603066159105924,0.07671776931843206,0.30687107727372825,0.0,0.15343553863686413,-0.07671776931843206,0.15343553863686413,0.4603066159105924,-0.6904599238658886,0.4603066159105924,-0.1538139283657074,-0.040283504873514175,0.23841288685798645,0.11884082853794098,0.6726410984992981,-0.19331935048103333,-0.14134934544563293,0.224290132522583,0.25980788469314575,0.1375260353088379,-0.05877416208386421,0.7192296385765076,-0.26435428857803345,0.026062048971652985,-0.036010021110996604,0.11210217233747244,0.06798080168664455,-0.00955970212817192,0.11230973899364471,-0.25619854778051376,-0.17723260074853897,0.05607253313064575,0.06495197117328644,0.03857029881328344,0.10747950803488493,0.1915011154487729,-0.10535848140716553,-0.04933502338826656,-0.036010021110996604,0.11210217233747244,0.06798080168664455,-0.00955970212817192,0.11230973899364471,-0.25619854778051376,-0.17723260074853897,0.05607253313064575,0.06495197117328644,0.03857029881328344,0.10747950803488493,0.1915011154487729,-0.10535848140716553,-0.04933502338826656,-0.024543692606170175,0.08914132800713216,0.021475731030399015,-0.07669903939428213,0.038349519697141066,-0.29912625363769996,-0.21935925266764666,0.04601942363656919,0.09050486648525302,0.04755340442445499,0.11061705903753118,0.15114687676118688,-0.08266452023605951,0.10564014359239134,,,,,,
21.981114735000006,0.0,0.0,-0.05781403147231216,-0.12435470920459599,-0.5934119456780721,-0.09489306842373618,-0.03571244510570717,-0.9948466850875567,1.0,1.0,-0.07671776931843206,0.2301533079552962,0.30687107727372825,0.15343553863686413,0.5370243852290244,0.15343553863686413,0.5370243852290244,0.2301533079552962,0.07671776931843206,-0.07671776931843206,0.07671776931843206,0.6904599238658886,-0.6137421545474565,0.3835888465921603,-0.1638263761997223,-0.0007852241396903992,0.25582435727119446,0.10991999506950378,0.6824703812599182,-0.13347752392292023,-0.1369294971227646,0.20830944180488586,0.17962028086185455,0.12307049334049225,-0.11467453837394714,0.5767069458961487,-0.23053845763206482,0.043818533420562744,-0.03851313306950033,0.12197674252092838,0.07233366928994656,-0.01178991049528122,0.11476705968379974,-0.2412380911409855,-0.17612763866782188,0.052077360451221466,0.04490507021546364,0.03495641332119703,0.0935044139623642,0.15587044227868319,-0.09690452367067337,-0.044895902276039124,-0.03851313306950033,0.12197674252092838,0.07233366928994656,-0.01178991049528122,0.11476705968379974,-0.2412380911409855,-0.17612763866782188,0.052077360451221466,0.04490507021546364,0.03495641332119703,0.0935044139623642,0.15587044227868319,-0.09690452367067337,-0.044895902276039124,-0.02914563496982714,0.09067530879501796,0.027611654181941336,-0.06902913545485401,0.04755340442445499,-0.294524311274043,-0.21168934872821854,0.05062136600022615,0.09203884727313838,0.04601942363656919,0.11215103982541698,0.16495270385215777,-0.0949363665391446,0.11177606674393366,,,,,,
22.002443994999908,0.0,0.0,-0.12326387842209953,-0.031634092692397225,-1.1257373675363425,-0.09388175448336032,-0.035715884857800126,-0.9949425067530034,1.0,0.0,-0.2301533079552962,0.07671776931843206,0.2301533079552962,0.4603066159105924,0.3835888465921603,0.2301533079552962,0.3835888465921603,0.2301533079552962,0.0,-0.07671776931843206,0.07671776931843206,0.8438954625027527,-0.6137421545474565,0.2301533079552962,-0.1923658698797226,-0.009506803005933762,0.3061787188053131,0.1231733113527298,0.7003055214881897,-0.07930216938257217,-0.1510644555091858,0.22121761739253998,0.13325071334838867,0.1141391396522522,-0.1527698040008545,0.4766703248023987,-0.2116098701953888,0.06855376064777374,-0.0456480064895004,0.11979634780436754,0.08492225967347622,-0.008476581424474716,0.11922584474086761,-0.22769425250589848,-0.17966137826442719,0.055304404348134995,0.03331267833709717,0.03272357489913702,0.08398059755563736,0.13086128700524569,-0.09217237681150436,-0.038712095469236374,-0.0456480064895004,0.11979634780436754,0.08492225967347622,-0.008476581424474716,0.11922584474086761,-0.22769425250589848,-0.17966137826442719,0.055304404348134995,0.03331267833709717,0.03272357489913702,0.08398059755563736,0.13086128700524569,-0.09217237681150436,-0.038712095469236374,-0.0337475773334841,0.09527725115867493,0.0322135965455983,-0.05982525072754008,0.05675728915176892,-0.29145634969827183,-0.2024854640009046,0.05522330836388312,0.09203884727313838,0.04601942363656919,0.11215103982541698,0.18182649251889982,-0.10414025126645853,0.11484402831970482,left_ankle,24,6.6,31,241,21
22.02123531299992,0.0,0.0,-0.19634954084936207,0.019634954084936207,-1.1650072757062149,-0.09388512743749938,-0.034696677531249775,-0.9949782527343685,1.0,0.0,-0.2301533079552962,0.30687107727372825,0.3835888465921603,0.4603066159105924,0.3835888465921603,0.2301533079552962,0.5370243852290244,0.15343553863686413,0.0,-0.0,-0.15343553863686413,0.6137421545474565,-0.3835888465921603,0.07671776931843206,-0.22328099608421326,-0.01550796627998352,0.3358900249004364,0.12318884581327438,0.7205767631530762,-0.035590849816799164,-0.19338926672935486,0.22856220602989197,0.10963933169841766,0.1280137151479721,-0.19356119632720947,0.42828550934791565,-0.20282596349716187,0.12471435219049454,-0.05337678804062307,0.1182960569858551,0.09235008619725704,-0.00847269780933857,0.12429365515708923,-0.21676642261445522,-0.19024258106946945,0.05714055150747299,0.027409832924604416,0.036192218773067,0.07378274947404861,0.11876508314162493,-0.08997640013694763,-0.024671947583556175,-0.05337678804062307,0.1182960569858551,0.09235008619725704,-0.00847269780933857,0.12429365515708923,-0.21676642261445522,-0.19024258106946945,0.05714055150747299,0.027409832924604416,0.036192218773067,0.07378274947404861,0.11876508314162493,-0.08997640013694763,-0.024671947583556175,-0.03681553890925526,0.10141317431021725,0.03988350048502687,-0.05062136600022615,0.06289321230331124,-0.28685440733461487,-0.1932815792735907,0.05675728915176892,0.09203884727313838,0.04448544284868339,0.10754909746176002,0.19256435803409955,-0.11181015520588665,0.11177606674393366,,,,,,
22.04123339499995,0.0,0.0,-0.03490658503988659,-0.055632369907319255,-0.7035858547102141,-0.094896477055352,-0.03469333569765557,-0.9948824207415934,1.0,0.0,-0.15343553863686413,0.2301533079552962,0.30687107727372825,0.30687107727372825,0.2301533079552962,0.15343553863686413,0.30687107727372825,0.0,0.0,-0.07671776931843206,-0.30687107727372825,0.2301533079552962,-0.3835888465921603,-0.30687107727372825,-0.23656810820102692,-0.05130283907055855,0.33723536133766174,0.08552705496549606,0.7295223474502563,-0.013183094561100006,-0.25479382276535034,0.25742411613464355,0.08197316527366638,0.13875678181648254,-0.2332945615053177,0.3215344548225403,-0.12008103728294373,0.1722324937582016,-0.056698566069826484,0.10934733878821135,0.09268642030656338,-0.01788814552128315,0.12653005123138428,-0.21116448380053043,-0.20559372007846832,0.06435602903366089,0.020493291318416595,0.03887798544019461,0.06384940817952156,0.09207731951028109,-0.0692901685833931,-0.01279241219162941,-0.056698566069826484,0.10934733878821135,0.09268642030656338,-0.01788814552128315,0.12653005123138428,-0.21116448380053043,-0.20559372007846832,0.06435602903366089,0.020493291318416595,0.03887798544019461,0.06384940817952156,0.09207731951028109,-0.0692901685833931,-0.01279241219162941,-0.03988350048502687,0.10601511667387421,0.04755340442445499,-0.04601942363656919,0.0674951546669682,-0.2837864457588437,-0.18714565612204836,0.05675728915176892,0.09203884727313838,0.038349519697141066,0.10141317431021725,0.1971663003977565,-0.11794607835742942,0.10257218201661973,,,,,,
22.06135196499997,0.0,0.0,-0.06326818538479445,-0.08072147790473774,-0.26725354171163174,-0.09591412301120593,-0.03265161634424031,-0.994853935488572,1.0,0.0,-0.07671776931843206,0.2301533079552962,0.3835888465921603,0.15343553863686413,0.2301533079552962,0.2301533079552962,0.2301533079552962,-0.07671776931843206,0.0,-0.3835888465921603,-0.30687107727372825,0.0,-0.2301533079552962,-0.5370243852290244,-0.26006582379341125,-0.07974722981452942,0.34887975454330444,0.060620442032814026,0.7079636454582214,0.027577653527259827,-0.3098437190055847,0.277236670255661,0.07956668734550476,0.13692182302474976,-0.23366375267505646,0.2864297330379486,-0.07302458584308624,0.24095550179481506,-0.06257299496792257,0.10223624110221863,0.09559751860797405,-0.02411479875445366,0.12114037573337555,-0.20097429677844048,-0.21935619413852692,0.06930916756391525,0.01989167183637619,0.03841924574226141,0.06375711038708687,0.08330113906413317,-0.057526055723428726,0.004388339817523956,-0.06257299496792257,0.10223624110221863,0.09559751860797405,-0.02411479875445366,0.12114037573337555,-0.20097429677844048,-0.21935619413852692,0.06930916756391525,0.01989167183637619,0.03841924574226141,0.06375711038708687,0.08330113906413317,-0.057526055723428726,0.004388339817523956,-0.03988350048502687,0.10908307824964582,0.053689327575997314,-0.04448544284868339,0.07209709703062517,-0.27918450339518674,-0.18561167533416256,0.053689327575997314,0.09050486648525302,0.035281558121369905,0.09527725115867493,0.1956323196098707,-0.12254802072108638,0.09030033571353464,,,,,,
22.08151136999993,0.0,0.0,-0.06326818538479445,-0.08072147790473774,-0.26725354171163174,-0.09289414732389163,-0.027561999755440377,-0.9952944356131246,1.0,0.0,-0.07671776931843206,0.15343553863686413,0.15343553863686413,0.07671776931843206,0.15343553863686413,0.30687107727372825,-0.0,-0.07671776931843206,-0.15343553863686413,-0.07671776931843206,-0.2301533079552962,-0.6137421545474565,-0.15343553863686413,-0.7671776931843206,-0.26595744490623474,-0.07402248680591583,0.3808114230632782,0.052768170833587646,0.6628255248069763,0.05103955417871475,-0.33158284425735474,0.2516227066516876,0.06588210165500641,0.12338463962078094,-0.22798781096935272,0.23324528336524963,-0.042017862200737,0.2529241740703583,-0.06404590024612844,0.10366742685437202,0.10358043573796749,-0.026077866554260254,0.10985584557056427,-0.19510882161557674,-0.22479097545146942,0.0629056766629219,0.016470525413751602,0.03503494989126921,0.0651760958135128,0.07000502664595842,-0.049774374812841415,0.0073805078864097595,-0.06404590024612844,0.10366742685437202,0.10358043573796749,-0.026077866554260254,0.10985584557056427,-0.19510882161557674,-0.22479097545146942,0.0629056766629219,0.016470525413751602,0.03503494989126921,0.0651760958135128,0.07000502664595842,-0.049774374812841415,0.0073805078864097595,-0.04295146206079803,0.10908307824964582,0.05675728915176892,-0.04448544284868339,0.07516505860639633,-0.273048580243644,-0.18561167533416256,0.052155346788111956,0.08743690490948142,0.035281558121369905,0.09067530879501796,0.18336047330678562,-0.12254802072108638,0.07035858547102143,,,,,,
22.102471667999907,0.0,0.0,-0.36106498900632694,0.28907015736156083,0.04363323129985824,-0.08674544288557787,-0.019390157821482113,-0.9960417912508706,1.0,0.0,-0.15343553863686413,-0.0,0.15343553863686413,-0.0,0.2301533079552962,0.3835888465921603,-0.0,-0.07671776931843206,-0.30687107727372825,-0.0,-0.30687107727372825,-0.8438954625027527,0.0,-0.9206132318211848,-0.2993229627609253,-0.054786231368780136,0.22541993856430054,0.051215581595897675,0.41348081827163696,0.12091385573148727,-0.2707870304584503,0.23244434595108032,0.08089831471443176,0.09529764950275421,-0.1898600161075592,0.28315991163253784,-0.05640554428100586,0.36773765087127686,-0.07238727970980108,0.10847649071365595,0.06473256461322308,-0.026466013863682747,0.04751966893672943,-0.1776402462273836,-0.20959202200174332,0.05811108648777008,0.02022457867860794,0.028013202361762524,0.07470804452896118,0.08248368371278048,-0.05337129533290863,0.036083877086639404,-0.07238727970980108,0.10847649071365595,0.06473256461322308,-0.026466013863682747,0.04751966893672943,-0.1776402462273836,-0.20959202200174332,0.05811108648777008,0.02022457867860794,0.028013202361762524,0.07470804452896118,0.08248368371278048,-0.05337129533290863,0.036083877086639404,-0.04755340442445499,0.10908307824964582,0.05982525072754008,-0.04448544284868339,0.07976700097005329,-0.2638446955163305,-0.18714565612204836,0.053689327575997314,0.07976700097005329,0.035281558121369905,0.08300540485558984,0.16495270385215777,-0.12254802072108638,0.05041683522850822,right_ankle,14,6.5,30,196,1
22.121499070999903,0.0,0.0,-0.4286964975211072,0.3937899124812206,0.019634954084936207,-0.07957800044685025,-0.011222538524555804,-0.9967654671355473,1.0,0.0,-0.15343553863686413,-0.0,0.2301533079552962,-0.0,0.15343553863686413,0.5370243852290244,-0.2301533079552962,0.2301533079552962,-0.30687107727372825,-0.0,-0.4603066159105924,-1.0740487704580488,0.0,-0.9973310011396168,-0.2812691926956177,0.019895199686288834,0.10063695907592773,0.09002671390771866,0.26486778259277344,0.1159750446677208,-0.22559034824371338,0.21223092079162598,0.09375278651714325,0.08249735832214355,-0.14944779872894287,0.4060705006122589,-0.1160564124584198,0.4639064073562622,-0.06787383719347417,0.1271468484774232,0.033536819741129875,-0.0167632307857275,0.01036641001701355,-0.17887494899332523,-0.19829285144805908,0.053057730197906494,0.023438196629285812,0.02481312956660986,0.08481109887361526,0.11321133095771074,-0.06828401237726212,0.06012606620788574,-0.06787383719347417,0.1271468484774232,0.033536819741129875,-0.0167632307857275,0.01036641001701355,-0.17887494899332523,-0.19829285144805908,0.053057730197906494,0.023438196629285812,0.02481312956660986,0.08481109887361526,0.11321133095771074,-0.06828401237726212,0.06012606620788574,-0.052155346788111956,0.10754909746176002,0.06442719309119704,-0.04448544284868339,0.08283496254582445,-0.25310683000113077,-0.1932815792735907,0.05982525072754008,0.07209709703062517,0.035281558121369905,0.07380152012827591,0.14347697282175875,-0.12254802072108638,0.032009065773880366,,,,,,
22.14168844099993,0.0,0.0,-0.559596191420682,0.4406956361285682,-0.10690141668465268,-0.07037720966932964,-0.0,-0.9975204500957158,1.0,1.0,-0.2301533079552962,-0.07671776931843206,0.30687107727372825,-0.0,0.07671776931843206,0.6137421545474565,-0.30687107727372825,0.30687107727372825,-0.5370243852290244,-0.0,-0.4603066159105924,-0.9973310011396168,0.0,-0.8438954625027527,-0.3062821626663208,0.049294885247945786,0.026894062757492065,0.11828621476888657,0.19578491151332855,0.10718841105699539,-0.17332813143730164,0.24364829063415527,0.09523628652095795,0.08910619467496872,-0.0945030227303505,0.5048672556877136,-0.23113533854484558,0.5743401646614075,-0.07412707968614995,0.13449676986783743,0.015101095661520958,-0.009698355570435524,-0.0069043077528476715,-0.18107160739600658,-0.18522729724645615,0.06091207265853882,0.023809071630239487,0.02646533865481615,0.09854729287326336,0.13791051972657442,-0.09705374389886856,0.08773450553417206,-0.07412707968614995,0.13449676986783743,0.015101095661520958,-0.009698355570435524,-0.0069043077528476715,-0.18107160739600658,-0.18522729724645615,0.06091207265853882,0.023809071630239487,0.02646533865481615,0.09854729287326336,0.13791051972657442,-0.09705374389886856,0.08773450553417206,-0.05675728915176892,0.10294715509810305,0.07209709703062517,-0.04448544284868339,0.08436894333371026,-0.23930100291015988,-0.2009514832130188,0.06442719309119704,0.06289321230331124,0.03988350048502687,0.06613161618884779,0.1266031841550167,-0.10874219363011549,0.02433916183445224,,,,,,
22.161670707999974,0.0,0.0,-0.6588617926278594,0.5421428989007386,-0.23889194136672387,-0.06021320458664363,0.012246753475249552,-0.9981104082328385,1.0,1.0,-0.30687107727372825,-0.2301533079552962,0.4603066159105924,0.07671776931843206,0.07671776931843206,0.9206132318211848,-0.4603066159105924,0.15343553863686413,-0.4603066159105924,0.2301533079552962,-0.3835888465921603,-0.6137421545474565,0.8438954625027527,-0.30687107727372825,-0.3285253345966339,0.06032398343086243,0.022737663239240646,0.11371490359306335,0.16692015528678894,0.1060006394982338,-0.13555431365966797,0.22497409582138062,0.08403122425079346,0.09553613513708115,-0.07236922532320023,0.5492038130760193,-0.3617173731327057,0.6250019073486328,-0.07968787266872823,0.1372540444135666,0.014061995781958103,-0.010841183364391327,-0.014120496809482574,-0.18136855028569698,-0.17578384280204773,0.056243523955345154,0.021007806062698364,0.028072823770344257,0.10408074222505093,0.14899465907365084,-0.1296992525458336,0.1003999412059784,-0.07968787266872823,0.1372540444135666,0.014061995781958103,-0.010841183364391327,-0.014120496809482574,-0.18136855028569698,-0.17578384280204773,0.056243523955345154,0.021007806062698364,0.028072823770344257,0.10408074222505093,0.14899465907365084,-0.1296992525458336,0.1003999412059784,-0.06442719309119704,0.10141317431021725,0.0813009817579391,-0.04295146206079803,0.08590292412159606,-0.21782527187976086,-0.20862138715244738,0.0674951546669682,0.04908738521234035,0.035281558121369905,0.05846171224941922,0.11126337627616045,-0.09340238575125924,0.015135277107138315,,,,,,
22.181736348999948,0.0,0.0,-0.7941248096574199,0.35015668118136234,-0.48978302134090873,-0.05613165499864197,0.024493813090316494,-0.998122883430397,1.0,1.0,-0.3835888465921603,-0.07671776931843206,0.3835888465921603,-0.0,0.07671776931843206,1.0740487704580488,-0.2301533079552962,0.07671776931843206,-0.7671776931843206,-0.2301533079552962,-0.07671776931843206,-0.4603066159105924,0.8438954625027527,-0.3835888465921603,-0.32760927081108093,0.07770473510026932,0.08745355904102325,0.07351849228143692,0.1751764416694641,0.13479956984519958,-0.11024071276187897,0.16153940558433533,0.0727149099111557,0.09990900754928589,-0.03898979723453522,0.5879271030426025,-0.45845839381217957,0.5832697153091431,-0.07945885672233999,0.1415992323309183,0.030240969732403755,-0.020890286192297935,-0.012056425213813782,-0.17416881769895554,-0.16945544257760048,0.04038485139608383,0.018178727477788925,0.029166041873395443,0.11242559924721718,0.15867548156529665,-0.15388450771570206,0.08996689319610596,-0.07945885672233999,0.1415992323309183,0.030240969732403755,-0.020890286192297935,-0.012056425213813782,-0.17416881769895554,-0.16945544257760048,0.04038485139608383,0.018178727477788925,0.029166041873395443,0.11242559924721718,0.15867548156529665,-0.15388450771570206,0.08996689319610596,-0.06902913545485401,0.10294715509810305,0.08743690490948142,-0.04295146206079803,0.08590292412159606,-0.19941750242513345,-0.20862138715244738,0.0659611738790824,0.038349519697141066,0.0322135965455983,0.05846171224941922,0.10359347233673233,-0.07652859708451719,0.010533334743481351,,,,,,
22.202742649000015,0.0,0.0,-0.24652775684419906,0.003272492347489368,-0.39924406639370286,-0.05510823825948853,0.028574642060475535,-0.9980714262551811,1.0,1.0,-0.2301533079552962,0.15343553863686413,0.07671776931843206,0.07671776931843206,-0.0,0.7671776931843206,0.07671776931843206,-0.07671776931843206,-0.30687107727372825,-0.15343553863686413,0.15343553863686413,-0.2301533079552962,0.8438954625027527,-0.15343553863686413,-0.3203948438167572,0.1293347030878067,0.10408651828765869,0.058910250663757324,0.23447149991989136,0.15904533863067627,-0.0977758914232254,0.0835719183087349,-0.012311435304582119,0.0752466544508934,-0.1345101147890091,0.5154402852058411,-0.32659414410591125,0.47486191987991333,-0.07765524997375906,0.15450672432780266,0.034399209544062614,-0.024542346596717834,0.00276733934879303,-0.16810737550258636,-0.1663392372429371,0.020892979577183723,-0.0030778588261455297,0.02300045359879732,0.08854551985859871,0.14055377710610628,-0.12091844528913498,0.06286494433879852,-0.07765524997375906,0.15450672432780266,0.034399209544062614,-0.024542346596717834,0.00276733934879303,-0.16810737550258636,-0.1663392372429371,0.020892979577183723,-0.0030778588261455297,0.02300045359879732,0.08854551985859871,0.14055377710610628,-0.12091844528913498,0.06286494433879852,-0.07363107781851097,0.10754909746176002,0.08743690490948142,-0.038349519697141066,0.08436894333371026,-0.18407769454627676,-0.21015536794033274,0.06442719309119704,0.0337475773334841,0.02914563496982714,0.06306365461307618,0.09899152997307537,-0.0627227699935463,0.00746537316771019,left_hip_pitch,22,6.9,30,1085,1
22.222085419999985,0.0,0.0,-0.05781403147231216,0.1810779098944117,-0.17016960206944712,-0.05103568821032497,0.02960069916198848,-0.9982580613939563,1.0,1.0,-0.15343553863686413,0.30687107727372825,-0.0,0.30687107727372825,-0.2301533079552962,0.7671776931843206,-0.07671776931843206,-0.07671776931843206,-0.2301533079552962,-0.15343553863686413,0.2301533079552962,-0.07671776931843206,0.6137421545474565,-0.15343553863686413,-0.3252221941947937,0.05880926176905632,0.11504635214805603,0.014972127974033356,0.20688489079475403,0.20070499181747437,-0.07308389246463776,0.04142972081899643,-0.018522918224334717,0.057026736438274384,-0.1604558378458023,0.39499619603157043,-0.1898082196712494,0.3198297619819641,-0.07886208756826818,0.13687536399811506,0.03713916800916195,-0.03552687726914883,-0.0041293129324913025,-0.15769246220588684,-0.16016623750329018,0.010357430204749107,-0.004630729556083679,0.018445474095642567,0.0820590890944004,0.11044275481253862,-0.08672196418046951,0.024106904864311218,-0.07886208756826818,0.13687536399811506,0.03713916800916195,-0.03552687726914883,-0.0041293129324913025,-0.15769246220588684,-0.16016623750329018,0.010357430204749107,-0.004630729556083679,0.018445474095642567,0.0820590890944004,0.11044275481253862,-0.08672196418046951,0.024106904864311218,-0.07823302018216749,0.11368502061330234,0.08897088569736722,-0.02914563496982714,0.07669903939428213,-0.1687378866674205,-0.20862138715244738,0.05829126993965428,0.03067961575771294,0.02914563496982714,0.06766559697673315,0.09899152997307537,-0.05351888526623237,0.004397411591939029,,,,,,
22.241957217999925,0.0,0.0,-0.2083486794568231,0.1712604328519436,-0.10362892433716332,-0.0479746215572658,0.03368430875297385,-0.9982804230426796,0.0,1.0,-0.07671776931843206,0.3835888465921603,0.07671776931843206,0.5370243852290244,-0.6137421545474565,0.4603066159105924,0.15343553863686413,-0.3835888465921603,-0.07671776931843206,-0.0,0.30687107727372825,0.0,0.3835888465921603,-0.15343553863686413,-0.32889264822006226,0.05990827828645706,0.09767042100429535,0.016288362443447113,0.16153264045715332,0.24350446462631226,-0.06732960045337677,0.03487236052751541,-0.020819857716560364,0.04837954044342041,-0.1412360668182373,0.34208616614341736,-0.07623729109764099,0.2847050130367279,-0.07977970107458532,0.13715011812746525,0.03279518522322178,-0.03519781865179539,-0.01546737551689148,-0.14699259400367737,-0.15872766450047493,0.008718090131878853,-0.005204964429140091,0.016283675096929073,0.08686403185129166,0.09721524734050035,-0.05832923203706741,0.015325717628002167,-0.07977970107458532,0.13715011812746525,0.03279518522322178,-0.03519781865179539,-0.01546737551689148,-0.14699259400367737,-0.15872766450047493,0.008718090131878853,-0.005204964429140091,0.016283675096929073,0.08686403185129166,0.09721524734050035,-0.05832923203706741,0.015325717628002167,-0.07976700097005329,0.1198209437648451,0.08590292412159606,-0.018407769454627854,0.06289321230331124,-0.15953400194010658,-0.20401944478879042,0.05062136600022615,0.026077673394055978,0.027611654181941336,0.07226753934039011,0.09899152997307537,-0.04891694290257541,0.004397411591939029,,,,,,
22.26198217199999,0.0,0.0,-0.41233403578366035,0.24870941840919197,-0.07526732399225546,-0.04388822276769497,0.04082625373739067,-0.9982019038792018,0.0,1.0,-0.07671776931843206,0.3835888465921603,-0.4603066159105924,0.3835888465921603,-0.6904599238658886,0.3835888465921603,0.3835888465921603,-0.3835888465921603,-0.30687107727372825,-0.07671776931843206,0.15343553863686413,0.0,0.15343553863686413,0.0,-0.3278309106826782,0.05737500637769699,0.042945314198732376,0.036186642944812775,0.12215721607208252,0.2808522582054138,-0.07142411917448044,0.014681397005915642,-0.008033039048314095,0.04073701798915863,-0.10484378784894943,0.3496869206428528,-0.037979960441589355,0.3030090928077698,-0.07951426669023931,0.13651680015027523,0.019113908521831036,-0.030223248526453972,-0.02531123161315918,-0.13765564560890198,-0.15975129418075085,0.0036703492514789104,-0.0020082597620785236,0.014373044483363628,0.09596210159361362,0.09911543596535921,-0.048764899373054504,0.019901737570762634,-0.07951426669023931,0.13651680015027523,0.019113908521831036,-0.030223248526453972,-0.02531123161315918,-0.13765564560890198,-0.15975129418075085,0.0036703492514789104,-0.0020082597620785236,0.014373044483363628,0.09596210159361362,0.09911543596535921,-0.048764899373054504,0.019901737570762634,-0.0813009817579391,0.1274908477042732,0.07516505860639633,-0.01380582709097089,0.04908738521234035,-0.15493205957644962,-0.1948155600614765,0.04295146206079803,0.019941750242513212,0.024543692606170175,0.07686948170404707,0.09899152997307537,-0.047382962114689606,0.005931392379824388,,,,,,
22.282083462999935,0.0,0.0,-0.17453292519943295,-0.00545415391248228,-0.16035212502697901,-0.04489898770204423,0.04489898770204423,-0.9979820448318013,0.0,1.0,-0.07671776931843206,0.3835888465921603,-0.5370243852290244,0.15343553863686413,-0.6137421545474565,0.15343553863686413,0.4603066159105924,-0.3835888465921603,-0.30687107727372825,-0.2301533079552962,0.07671776931843206,0.0,0.07671776931843206,0.07671776931843206,-0.3042016923427582,0.06435149908065796,0.11580424010753632,0.012268893420696259,0.18434152007102966,0.2899741232395172,-0.03267041593790054,-0.045414119958877563,-0.04347115755081177,0.01654244400560856,-0.1424829512834549,0.27013644576072693,-0.01130378246307373,0.21982832252979279,-0.0736069621052593,0.13826092332601547,0.03732863999903202,-0.0362026859074831,-0.009765155613422394,-0.13537517935037613,-0.15006286837160587,-0.011353529989719391,-0.010867789387702942,0.00832440098747611,0.08655231073498726,0.07922781724482775,-0.0420958548784256,-0.0008934549987316132,-0.0736069621052593,0.13826092332601547,0.03732863999903202,-0.0362026859074831,-0.009765155613422394,-0.13537517935037613,-0.15006286837160587,-0.011353529989719391,-0.010867789387702942,0.00832440098747611,0.08655231073498726,0.07922781724482775,-0.0420958548784256,-0.0008934549987316132,-0.08283496254582445,0.13516075164370134,0.06442719309119704,-0.01380582709097089,0.03681553890925526,-0.15033011721279266,-0.18407769454627676,0.035281558121369905,0.01380582709097089,0.019941750242513212,0.07686948170404707,0.09899152997307537,-0.047382962114689606,0.012067315531367154,,,,,,
22.303074169999945,0.0,0.0,-0.2879793265790644,-0.1265363707695889,-0.30543261909900765,-0.04794186503235671,0.04998194439543571,-0.9975988085456352,0.0,1.0,0.0,0.15343553863686413,-0.5370243852290244,-0.0,-0.5370243852290244,0.2301533079552962,0.5370243852290244,-0.3835888465921603,-0.2301533079552962,-0.2301533079552962,0.0,0.0,0.0,0.30687107727372825,-0.3053290545940399,0.042288921773433685,0.12789472937583923,0.008534081280231476,0.21945157647132874,0.30704566836357117,-0.002221345901489258,-0.09201444685459137,-0.048042647540569305,-0.015095536597073078,-0.14488109946250916,0.25308558344841003,0.028043121099472046,0.18775621056556702,-0.07388880266807973,0.1327452789992094,0.04035126231610775,-0.0371363889425993,-0.0009876415133476257,-0.13110729306936264,-0.14245060086250305,-0.023003611713647842,-0.012010661885142326,0.00041490583680570126,0.0859527736902237,0.07496510166674852,-0.032259128987789154,-0.008911482989788055,-0.07388880266807973,0.1327452789992094,0.04035126231610775,-0.0371363889425993,-0.0009876415133476257,-0.13110729306936264,-0.14245060086250305,-0.023003611713647842,-0.012010661885142326,0.00041490583680570126,0.0859527736902237,0.07496510166674852,-0.032259128987789154,-0.008911482989788055,-0.08283496254582445,0.1397626940073583,0.053689327575997314,-0.01380582709097089,0.026077673394055978,-0.14419419406125034,-0.17333982903107747,0.027611654181941336,0.010737865515199285,0.01380582709097089,0.07686948170404707,0.09899152997307537,-0.047382962114689606,0.018203238682909476,right_hip_pitch,12,7.0,31,0,0
22.322425496999927,0.0,0.0,-0.3763366199612773,0.006544984694978736,-0.2585268954516601,-0.04589128209023302,0.05608934477695147,-0.9973705307610642,0.0,1.0,0.0,-0.0,-0.4603066159105924,-0.0,-0.4603066159105924,0.3835888465921603,0.4603066159105924,-0.4603066159105924,-0.15343553863686413,-0.2301533079552962,0.07671776931843206,0.0,0.0,0.30687107727372825,-0.30991554260253906,0.048021070659160614,0.07689377665519714,-0.0008845478296279907,0.16966110467910767,0.3399501442909241,0.04123792052268982,-0.11904052644968033,-0.04450004920363426,-0.03070896863937378,-0.1456274688243866,0.2686404883861542,0.0234232097864151,0.1750725656747818,-0.07503542467020452,0.13417831622064114,0.027601024135947227,-0.03949104622006416,-0.013435259461402893,-0.12288117408752441,-0.13158578425645828,-0.029760131612420082,-0.011125012300908566,-0.003488452173769474,0.08576618134975433,0.07885382790118456,-0.03341410681605339,-0.01208239421248436,-0.07503542467020452,0.13417831622064114,0.027601024135947227,-0.03949104622006416,-0.013435259461402893,-0.12288117408752441,-0.13158578425645828,-0.029760131612420082,-0.011125012300908566,-0.003488452173769474,0.08576618134975433,0.07885382790118456,-0.03341410681605339,-0.01208239421248436,-0.08283496254582445,0.1397626940073583,0.04601942363656919,-0.01380582709097089,0.021475731030399015,-0.13805827090970757,-0.16413594430376355,0.018407769454627854,0.009203884727313927,0.012271846303085088,0.07840346249193288,0.09899152997307537,-0.047382962114689606,0.02127120025868108,,,,,,
22.342273608999903,0.0,0.0,-0.13853550937704992,0.2476185876266955,-0.21598449493429828,-0.04283268739687492,0.05813007575290169,-0.9973897208129445,0.0,1.0,0.0,0.07671776931843206,-0.30687107727372825,-0.0,-0.07671776931843206,0.30687107727372825,0.5370243852290244,-0.3835888465921603,-0.07671776931843206,-0.15343553863686413,0.0,0.15343553863686413,0.0,0.15343553863686413,-0.2960353195667267,0.05599697306752205,0.06351469457149506,-0.012825191020965576,0.1635284125804901,0.3548189401626587,0.08682651817798615,-0.12244635820388794,-0.04693606495857239,-0.012241076678037643,-0.15466974675655365,0.22693359851837158,-0.01586514711380005,0.14829738438129425,-0.07156536891125143,0.1361722918227315,0.024256253615021706,-0.04247620701789856,-0.014968432486057281,-0.11916397511959076,-0.1201886348426342,-0.030611589550971985,-0.011734016239643097,0.00112852081656456,0.08350561186671257,0.06842710543423891,-0.04323619604110718,-0.018776189535856247,-0.07156536891125143,0.1361722918227315,0.024256253615021706,-0.04247620701789856,-0.014968432486057281,-0.11916397511959076,-0.1201886348426342,-0.030611589550971985,-0.011734016239643097,0.00112852081656456,0.08350561186671257,0.06842710543423891,-0.04323619604110718,-0.018776189535856247,-0.08283496254582445,0.1412966747952441,0.04141748127291223,-0.01380582709097089,0.021475731030399015,-0.13038836697027945,-0.15339807878856426,0.01380582709097089,0.007669903939428124,0.010737865515199285,0.07840346249193288,0.10205949154884653,-0.047382962114689606,0.02280518104656644,,,,,,
22.36228111799994,0.0,0.0,-0.001090830782496456,-0.008726646259971648,-0.6021385919380436,-0.04385315182134937,0.057111081441757326,-0.9974042437506904,0.0,1.0,0.0,-0.0,-0.2301533079552962,-0.0,-0.0,0.3835888465921603,0.5370243852290244,-0.2301533079552962,0.0,-0.07671776931843206,0.0,0.07671776931843206,0.0,0.07671776931843206,-0.281063050031662,0.03698637709021568,0.11311274766921997,-0.025759577751159668,0.2101553976535797,0.3660760223865509,0.10487982630729675,-0.1376482993364334,-0.029429206624627113,-0.01840168423950672,-0.13927076756954193,0.18927444517612457,0.02100270986557007,0.12212976068258286,-0.06782230152748525,0.1314196428284049,0.036655766889452934,-0.04570980370044708,-0.0033116862177848816,-0.1163497045636177,-0.11567530781030655,-0.03441207483410835,-0.007357301656156778,-0.0004116310738027096,0.0873553566634655,0.05901231709867716,-0.03401923179626465,-0.025318095460534096,-0.06782230152748525,0.1314196428284049,0.036655766889452934,-0.04570980370044708,-0.0033116862177848816,-0.1163497045636177,-0.11567530781030655,-0.03441207483410835,-0.007357301656156778,-0.0004116310738027096,0.0873553566634655,0.05901231709867716,-0.03401923179626465,-0.025318095460534096,-0.08283496254582445,0.1412966747952441,0.038349519697141066,-0.01380582709097089,0.021475731030399015,-0.12271846303085132,-0.14266021327336453,0.004601942363656963,0.009203884727313927,0.007669903939428124,0.07840346249193288,0.10359347233673233,-0.047382962114689606,0.019737219470795278,,,,,,
22.382541769,0.0,0.0,-0.008726646259971648,-0.01090830782496456,-0.45160394395353276,-0.04385057505111678,0.05812750646310829,-0.9973456372091211,0.0,1.0,0.0,-0.0,-0.0,-0.0,-0.07671776931843206,0.3835888465921603,0.5370243852290244,-0.5370243852290244,0.07671776931843206,-0.07671776931843206,0.0,0.0,0.0,-0.30687107727372825,-0.28421875834465027,0.04343594238162041,0.10779401659965515,-0.042501434683799744,0.20425647497177124,0.3924962282180786,0.1256473809480667,-0.14416632056236267,-0.02704896219074726,-0.024713903665542603,-0.1407703310251236,0.17790724337100983,0.03887489438056946,0.0949711948633194,-0.06861122860573232,0.13303203415125608,0.03532608412206173,-0.0498952679336071,-0.0047864168882369995,-0.10974465310573578,-0.11048341915011406,-0.03604158014059067,-0.006762240547686815,-0.00198968593031168,0.08698046579957008,0.05617051664739847,-0.0295511856675148,-0.03210773691534996,-0.06861122860573232,0.13303203415125608,0.03532608412206173,-0.0498952679336071,-0.0047864168882369995,-0.10974465310573578,-0.11048341915011406,-0.03604158014059067,-0.006762240547686815,-0.00198968593031168,0.08698046579957008,0.05617051664739847,-0.0295511856675148,-0.03210773691534996,-0.08283496254582445,0.1412966747952441,0.038349519697141066,-0.015339807878856249,0.018407769454627854,-0.1150485590914232,-0.13038836697027945,-0.004601942363656963,0.010737865515199285,0.006135923151542766,0.07840346249193288,0.10359347233673233,-0.04584898132680425,0.015135277107138315,,,,,,
22.403530530000012,0.0,0.0,-0.019634954084936207,0.07308566242726255,-0.05345070834232634,-0.04283520457599346,0.05711360610132462,-0.9974483351267048,0.0,1.0,0.15343553863686413,-0.15343553863686413,-0.0,-0.07671776931843206,-0.15343553863686413,0.3835888465921603,0.6137421545474565,-0.4603066159105924,0.07671776931843206,-0.07671776931843206,0.0,0.0,0.07671776931843206,-0.30687107727372825,-0.2725675106048584,0.038307804614305496,0.09680035710334778,-0.039464399218559265,0.1967395544052124,0.42348429560661316,0.14433932304382324,-0.1628461629152298,-0.0266781784594059,-0.016009554266929626,-0.13312730193138123,0.16489040851593018,0.028368115425109863,0.09336289763450623,-0.06569841667078435,0.13174999970942736,0.032577669247984886,-0.04913600906729698,-0.006665647029876709,-0.10199763625860214,-0.10581043362617493,-0.04071154072880745,-0.006669544614851475,0.00018640141934156418,0.08889122307300568,0.05291630793362856,-0.0321778804063797,-0.03250981122255325,-0.06569841667078435,0.13174999970942736,0.032577669247984886,-0.04913600906729698,-0.006665647029876709,-0.10199763625860214,-0.10581043362617493,-0.04071154072880745,-0.006669544614851475,0.00018640141934156418,0.08889122307300568,0.05291630793362856,-0.0321778804063797,-0.03250981122255325,-0.07976700097005329,0.13822871321947294,0.038349519697141066,-0.015339807878856249,0.01687378866674205,-0.10737865515199507,-0.11965050145508016,-0.01380582709097089,0.009203884727313927,0.003067961575771161,0.07686948170404707,0.10359347233673233,-0.041247038963147284,0.008999353955595549,left_knee,23,6.8,30,1190,12
22.422530155000004,0.0,0.0,0.1265363707695889,0.011999138607461015,0.006544984694978736,-0.04284249130332481,0.05406314378752893,-0.9976180117774206,0.0,1.0,0.15343553863686413,-0.15343553863686413,-0.0,-0.0,-0.0,0.3835888465921603,0.4603066159105924,-0.4603066159105924,-0.07671776931843206,-0.15343553863686413,-0.07671776931843206,0.0,0.30687107727372825,-0.3835888465921603,-0.2600439488887787,0.03543395921587944,0.10612426698207855,-0.047402918338775635,0.22859768569469452,0.43615126609802246,0.16401678323745728,-0.1706211417913437,-0.025083819404244423,-0.015413342975080013,-0.11737548559904099,0.1654767096042633,0.025202512741088867,0.06641954928636551,-0.06256752624176443,0.13103153835982084,0.03490864671766758,-0.051120638847351074,0.0012988857924938202,-0.09883089363574982,-0.10089106857776642,-0.04265528544783592,-0.006270954851061106,0.0003354542423039675,0.09282917715609074,0.05306288320571184,-0.03296928107738495,-0.03924564830958843,-0.06256752624176443,0.13103153835982084,0.03490864671766758,-0.051120638847351074,0.0012988857924938202,-0.09883089363574982,-0.10089106857776642,-0.04265528544783592,-0.006270954851061106,0.0003354542423039675,0.09282917715609074,0.05306288320571184,-0.03296928107738495,-0.03924564830958843,-0.07669903939428213,0.13516075164370134,0.038349519697141066,-0.015339807878856249,0.01687378866674205,-0.1012427320004523,-0.10891263593988043,-0.021475731030399015,0.009203884727313927,0.003067961575771161,0.07686948170404707,0.10205949154884653,-0.03357713502371916,0.0013294500161674244,,,,,,
22.442652798999916,0.0,0.0,0.13962634015954636,-0.009817477042468103,0.019634954084936207,-0.04284712822128888,0.05202865569727936,-0.9977259857242982,0.0,1.0,0.2301533079552962,-0.07671776931843206,-0.0,-0.07671776931843206,-0.0,0.2301533079552962,0.5370243852290244,-0.30687107727372825,-0.07671776931843206,-0.07671776931843206,0.0,-0.2301533079552962,0.3835888465921603,-0.30687107727372825,-0.24211226403713226,0.03525528684258461,0.120084747672081,-0.05623817443847656,0.2426738142967224,0.4426076114177704,0.17961227893829346,-0.20127959549427032,-0.03193666785955429,-0.013784324750304222,-0.10985831171274185,0.15779714286327362,0.030366316437721252,0.054784663021564484,-0.05808460502885282,0.13098687026649714,0.03839876689016819,-0.053329452872276306,0.0048179179430007935,-0.09721680730581284,-0.09699219465255737,-0.05031989887356758,-0.007984166964888573,0.0007427087984979153,0.09470847062766552,0.05114299152046442,-0.03167833015322685,-0.04215436987578869,-0.05808460502885282,0.13098687026649714,0.03839876689016819,-0.053329452872276306,0.0048179179430007935,-0.09721680730581284,-0.09699219465255737,-0.05031989887356758,-0.007984166964888573,0.0007427087984979153,0.09470847062766552,0.05114299152046442,-0.03167833015322685,-0.04215436987578869,-0.07209709703062517,0.13362677085581598,0.038349519697141066,-0.018407769454627854,0.015339807878856249,-0.09510680884890954,-0.1012427320004523,-0.02914563496982714,0.003067961575771161,0.0015339807878858025,0.07686948170404707,0.09899152997307537,-0.028975192660062196,-0.0063404539232607,,,,,,
22.462636583999938,0.0,0.0,0.12326387842209953,-0.009817477042468103,0.003272492347489368,-0.04285375181561484,0.04897571636070268,-0.997880220849317,0.0,1.0,0.15343553863686413,-0.07671776931843206,-0.0,-0.15343553863686413,-0.07671776931843206,0.2301533079552962,0.30687107727372825,-0.3835888465921603,-0.30687107727372825,-0.0,0.0,-0.2301533079552962,0.15343553863686413,-0.2301533079552962,-0.24042639136314392,0.033628370612859726,0.11984236538410187,-0.06407980620861053,0.25012046098709106,0.4475874602794647,0.19357189536094666,-0.2029496729373932,-0.03663128986954689,-0.018462689593434334,-0.1050395667552948,0.1513034999370575,0.037327840924263,0.04745110869407654,-0.057663136860355735,0.13058014120906591,0.03833817131817341,-0.0552898608148098,0.0066795796155929565,-0.09597184509038925,-0.09350229054689407,-0.0507374182343483,-0.009157822467386723,-0.00042688241228461266,0.09591315686702728,0.04951958078891039,-0.029937949031591415,-0.043987758457660675,-0.057663136860355735,0.13058014120906591,0.03833817131817341,-0.0552898608148098,0.0066795796155929565,-0.09597184509038925,-0.09350229054689407,-0.0507374182343483,-0.009157822467386723,-0.00042688241228461266,0.09591315686702728,0.04951958078891039,-0.029937949031591415,-0.043987758457660675,-0.06902913545485401,0.13209279006793018,0.038349519697141066,-0.023009711818284817,0.015339807878856249,-0.09050486648525302,-0.09510680884890954,-0.0337475773334841,0.0,0.0015339807878858025,0.07686948170404707,0.0928556068215326,-0.025907231084291035,-0.010942396286917663,,,,,,
22.48282476899999,0.0,0.0,0.19853120241435498,0.008726646259971648,-0.09599310885968812,-0.042861963090713294,0.04490300895217584,-0.9980714262551811,0.0,1.0,0.15343553863686413,-0.07671776931843206,-0.0,-0.15343553863686413,-0.0,0.2301533079552962,0.30687107727372825,-0.2301533079552962,-0.07671776931843206,-0.0,0.0,-0.2301533079552962,0.15343553863686413,-0.15343553863686413,-0.23265372216701508,0.019873470067977905,0.13165614008903503,-0.07528972625732422,0.2885204255580902,0.4484812617301941,0.19738280773162842,-0.21519291400909424,-0.034843072295188904,-0.005818724632263184,-0.09259241074323654,0.1373351365327835,0.04054015874862671,0.0538247749209404,-0.055719969561323524,0.12714141607284546,0.0412916149944067,-0.05809234082698822,0.016279570758342743,-0.09574839472770691,-0.09254956245422363,-0.05379822850227356,-0.008710768073797226,0.002734108828008175,0.09902494587004185,0.04602748993784189,-0.02913486957550049,-0.04239434190094471,-0.055719969561323524,0.12714141607284546,0.0412916149944067,-0.05809234082698822,0.016279570758342743,-0.09574839472770691,-0.09254956245422363,-0.05379822850227356,-0.008710768073797226,0.002734108828008175,0.09902494587004185,0.04602748993784189,-0.02913486957550049,-0.04239434190094471,-0.0659611738790824,0.13055880928004437,0.038349519697141066,-0.026077673394055978,0.015339807878856249,-0.08590292412159606,-0.09050486648525302,-0.03988350048502687,-0.0015339807878858025,-0.0,0.07686948170404707,0.08825366445787564,-0.024373250296405233,-0.014010357862688824,,,,,,
22.503770138999926,0.0,0.0,0.29343348049154666,0.05999569303730508,-0.12435470920459599,-0.04181136127705425,0.03875199337873321,-0.9983737241521004,0.0,1.0,0.15343553863686413,-0.07671776931843206,-0.0,-0.2301533079552962,0.07671776931843206,0.2301533079552962,0.2301533079552962,-0.30687107727372825,-0.07671776931843206,-0.07671776931843206,0.0,-0.15343553863686413,0.07671776931843206,-0.15343553863686413,-0.23400253057479858,0.021590691059827805,0.13254041969776154,-0.09963713586330414,0.3097923696041107,0.45901376008987427,0.21512609720230103,-0.21543797850608826,-0.03525461629033089,-0.004265052266418934,-0.0836053267121315,0.1310456246137619,0.02774791419506073,0.020664840936660767,-0.0560571716632694,0.12757072132080793,0.041512684896588326,-0.0641791932284832,0.02159755676984787,-0.09311527013778687,-0.08811374008655548,-0.053859494626522064,-0.008813654072582722,0.0031225269194692373,0.10127171687781811,0.04445511195808649,-0.03233293071389198,-0.05068432539701462,-0.0560571716632694,0.12757072132080793,0.041512684896588326,-0.0641791932284832,0.02159755676984787,-0.09311527013778687,-0.08811374008655548,-0.053859494626522064,-0.008813654072582722,0.0031225269194692373,0.10127171687781811,0.04445511195808649,-0.03233293071389198,-0.05068432539701462,-0.06289321230331124,0.12902482849215902,0.038349519697141066,-0.02914563496982714,0.01687378866674205,-0.08283496254582445,-0.08590292412159606,-0.04601942363656919,-0.003067961575771161,-0.0015339807878858025,0.07840346249193288,0.08518570288210447,-0.024373250296405233,-0.017078319438459985,right_knee,13,6.7,30,38,2
22.52283111899999,0.0,0.0,0.25416357232167425,0.0545415391248228,-0.136353847812057,-0.04080082312410864,0.03366067907738963,-0.998600145962559,0.0,1.0,0.07671776931843206,-0.0,-0.0,-0.15343553863686413,-0.0,0.07671776931843206,0.15343553863686413,-0.30687107727372825,-0.07671776931843206,-0.15343553863686413,0.07671776931843206,-0.15343553863686413,0.0,-0.07671776931843206,-0.2250043898820877,0.02440410666167736,0.1352747678756714,-0.10192523896694183,0.314041405916214,0.4548627734184265,0.22252285480499268,-0.24663937091827393,-0.0358743779361248,-0.00552976643666625,-0.08149836212396622,0.12340979278087616,0.02706034481525421,0.02533741295337677,-0.05380763649009168,0.12827407522127032,0.04219627194106579,-0.06475121900439262,0.022659815847873688,-0.0941530168056488,-0.08626455068588257,-0.06165984272956848,-0.0089685944840312,0.0028063483769074082,0.10179845802485943,0.042546153999865055,-0.03250482305884361,-0.04951618239283562,-0.05380763649009168,0.12827407522127032,0.04219627194106579,-0.06475121900439262,0.022659815847873688,-0.0941530168056488,-0.08626455068588257,-0.06165984272956848,-0.0089685944840312,0.0028063483769074082,0.10179845802485943,0.042546153999865055,-0.03250482305884361,-0.04951618239283562,-0.06135923151542544,0.12902482849215902,0.038349519697141066,-0.0337475773334841,0.01687378866674205,-0.0813009817579391,-0.08283496254582445,-0.052155346788111956,-0.004601942363656963,-0.003067961575771161,0.07840346249193288,0.08211774130633331,-0.024373250296405233,-0.018612300226345788,,,,,,
22.542977726999993,0.0,0.0,0.2945243112740431,-0.02945243112740431,-0.19198621771937624,-0.04182571791629115,0.02856390491844274,-0.998716532684123,0.0,1.0,0.0,-0.0,-0.0,-0.15343553863686413,-0.0,0.07671776931843206,0.15343553863686413,-0.30687107727372825,-0.07671776931843206,-0.0,0.0,-0.15343553863686413,0.0,-0.15343553863686413,-0.22540578246116638,0.018323175609111786,0.15947429835796356,-0.10564680397510529,0.3372456431388855,0.441891074180603,0.21572428941726685,-0.26145124435424805,-0.03245479613542557,-0.010387161746621132,-0.07994616031646729,0.1315627247095108,0.04873710870742798,0.044580549001693726,-0.05390798463486135,0.12675384245812893,0.04824615456163883,-0.06568161025643349,0.028460875153541565,-0.09739594161510468,-0.08796419203281403,-0.06536281108856201,-0.008113699033856392,0.0015919995494186878,0.10218650847673416,0.044584386982023716,-0.02708563208580017,-0.04470539838075638,-0.05390798463486135,0.12675384245812893,0.04824615456163883,-0.06568161025643349,0.028460875153541565,-0.09739594161510468,-0.08796419203281403,-0.06536281108856201,-0.008113699033856392,0.0015919995494186878,0.10218650847673416,0.044584386982023716,-0.02708563208580017,-0.04470539838075638,-0.06135923151542544,0.12902482849215902,0.04141748127291223,-0.035281558121369905,0.018407769454627854,-0.07976700097005329,-0.0813009817579391,-0.05675728915176892,-0.004601942363656963,-0.003067961575771161,0.07840346249193288,0.08058376051844751,-0.024373250296405233,-0.02168026180211695,,,,,,
22.562962975000005,0.0,0.0,0.2814343418840856,-0.07308566242726255,-0.05999569303730508,-0.04285069610595109,0.022445602722164858,-0.9988293211363363,0.0,1.0,0.07671776931843206,-0.0,0.15343553863686413,-0.15343553863686413,0.15343553863686413,0.07671776931843206,0.07671776931843206,-0.15343553863686413,0.0,-0.0,0.0,-0.07671776931843206,0.0,-0.2301533079552962,-0.2183477133512497,0.022557616233825684,0.16562321782112122,-0.12024548649787903,0.34514379501342773,0.440073162317276,0.21281343698501587,-0.2585984468460083,-0.03153514489531517,-0.017597628757357597,-0.0797409862279892,0.13923151791095734,0.05617908388376236,0.04732673615217209,-0.05214346735738218,0.1278124526143074,0.049783384427428246,-0.06933128088712692,0.030435413122177124,-0.09785041958093643,-0.08869190514087677,-0.06464961171150208,-0.007883786223828793,-0.00021061720326542854,0.10223780199885368,0.04650158528238535,-0.025225138291716576,-0.04401885159313679,-0.05214346735738218,0.1278124526143074,0.049783384427428246,-0.06933128088712692,0.030435413122177124,-0.09785041958093643,-0.08869190514087677,-0.06464961171150208,-0.007883786223828793,-0.00021061720326542854,0.10223780199885368,0.04650158528238535,-0.025225138291716576,-0.04401885159313679,-0.05982525072754008,0.12902482849215902,0.04295146206079803,-0.04141748127291223,0.023009711818284817,-0.07976700097005329,-0.07976700097005329,-0.05829126993965428,-0.003067961575771161,-0.003067961575771161,0.07840346249193288,0.07904977973056171,-0.024373250296405233,-0.026282204165773912,,,,,,
22.583156455999983,0.0,0.0,0.29343348049154666,-0.08508480103472356,-0.038179077387375956,-0.04489174282753332,0.017344537001546964,-0.9988412779126163,0.0,1.0,0.07671776931843206,-0.0,0.15343553863686413,-0.2301533079552962,0.2301533079552962,-0.0,0.07671776931843206,-0.07671776931843206,0.07671776931843206,-0.0,0.0,-0.07671776931843206,0.0,-0.15343553863686413,-0.2153221219778061,0.025429261848330498,0.17649687826633453,-0.1317252814769745,0.3395957350730896,0.43512392044067383,0.22061139345169067,-0.24700701236724854,-0.03471142798662186,-0.022782450541853905,-0.07993188500404358,0.14069253206253052,0.06254246085882187,0.05547584593296051,-0.05138706951402128,0.1285303640179336,0.052501799538731575,-0.07220122963190079,0.02904839813709259,-0.09908773005008698,-0.08674241602420807,-0.061751753091812134,-0.008677856996655464,-0.0015068226493895054,0.10219007730484009,0.046866838820278645,-0.0236342940479517,-0.04198157414793968,-0.05138706951402128,0.1285303640179336,0.052501799538731575,-0.07220122963190079,0.02904839813709259,-0.09908773005008698,-0.08674241602420807,-0.061751753091812134,-0.008677856996655464,-0.0015068226493895054,0.10219007730484009,0.046866838820278645,-0.0236342940479517,-0.04198157414793968,-0.05829126993965428,0.12902482849215902,0.04601942363656919,-0.04601942363656919,0.02914563496982714,-0.07976700097005329,-0.07976700097005329,-0.06135923151542544,-0.003067961575771161,-0.003067961575771161,0.07840346249193288,0.07598181815479055,-0.024373250296405233,-0.029350165741545073,,,,,,
22.604088214999933,0.0,0.0,0.2650718801466388,-0.1505346479845109,-0.03599741582238305,-0.04794992310297728,0.011222322428356383,-0.9987866961237182,0.0,1.0,0.0,-0.0,0.15343553863686413,-0.30687107727372825,0.2301533079552962,-0.0,-0.0,-0.15343553863686413,0.0,-0.0,0.0,-0.07671776931843206,0.0,-0.15343553863686413,-0.21033057570457458,0.025095898658037186,0.18560411036014557,-0.13427996635437012,0.33508604764938354,0.4192289113998413,0.22186562418937683,-0.245250403881073,-0.03341721370816231,-0.03414098918437958,-0.07678332924842834,0.1610858291387558,0.07660805433988571,0.07075179368257523,-0.0501391829457134,0.12844702322036028,0.054778607562184334,-0.0728399008512497,0.027920976281166077,-0.1030614823102951,-0.08642885833978653,-0.06131260097026825,-0.008354303427040577,-0.004346457310020924,0.1029772162437439,0.051965163089334965,-0.020117895677685738,-0.038162587210536,-0.0501391829457134,0.12844702322036028,0.054778607562184334,-0.0728399008512497,0.027920976281166077,-0.1030614823102951,-0.08642885833978653,-0.06131260097026825,-0.008354303427040577,-0.004346457310020924,0.1029772162437439,0.051965163089334965,-0.020117895677685738,-0.038162587210536,-0.05829126993965428,0.12902482849215902,0.04908738521234035,-0.052155346788111956,0.0337475773334841,-0.07976700097005329,-0.07976700097005329,-0.06289321230331124,-0.003067961575771161,-0.003067961575771161,0.07840346249193288,0.07598181815479055,-0.024373250296405233,-0.033952108105202036,left_ankle,24,7.0,31,1055,0
22.623165880999977,0.0,0.0,0.28579766501407144,-0.17998707911191522,0.05999569303730508,-0.05202245678731983,0.006120289033802333,-0.9986271606820807,1.0,1.0,0.0,-0.0,0.15343553863686413,-0.30687107727372825,0.2301533079552962,-0.0,-0.0,-0.07671776931843206,0.0,0.07671776931843206,0.0,0.0,0.0,-0.2301533079552962,-0.20539173483848572,0.026234155520796776,0.19986873865127563,-0.14406153559684753,0.33922278881073,0.4093984067440033,0.22109997272491455,-0.24492797255516052,-0.032596323639154434,-0.026861924678087234,-0.07716873288154602,0.17398326098918915,0.08777319639921188,0.08868855237960815,-0.048904472729191184,0.12873158743605018,0.05834476463496685,-0.07528529316186905,0.028955161571502686,-0.10551910847425461,-0.0866202712059021,-0.06123199313879013,-0.008149080909788609,-0.002526691183447838,0.10288086533546448,0.0551895210519433,-0.017326610162854195,-0.03367839753627777,-0.048904472729191184,0.12873158743605018,0.05834476463496685,-0.07528529316186905,0.028955161571502686,-0.10551910847425461,-0.0866202712059021,-0.06123199313879013,-0.008149080909788609,-0.002526691183447838,0.10288086533546448,0.0551895210519433,-0.017326610162854195,-0.03367839753627777,-0.05829126993965428,0.12902482849215902,0.052155346788111956,-0.05675728915176892,0.03681553890925526,-0.07976700097005329,-0.07976700097005329,-0.06289321230331124,-0.003067961575771161,-0.0015339807878858025,0.07840346249193288,0.07598181815479055,-0.024373250296405233,-0.03702006968097364,,,,,,
22.643362750999927,0.0,0.0,0.2912518189265537,-0.16253378659197193,0.09926560120717749,-0.05507457918782769,0.0010198996145894016,-0.9984817226830243,1.0,1.0,0.0,-0.0,0.15343553863686413,-0.2301533079552962,0.15343553863686413,-0.0,-0.0,0.0,0.0,-0.0,0.0,0.0,0.0,-0.07671776931843206,-0.2021312564611435,0.02924121730029583,0.20408980548381805,-0.15846002101898193,0.33596497774124146,0.4053650498390198,0.22326815128326416,-0.22741107642650604,-0.03232184424996376,-0.03176014870405197,-0.07538741081953049,0.1869429498910904,0.08973471075296402,0.09407758712768555,-0.04808935313485563,0.12948335288092494,0.059400031343102455,-0.07888491451740265,0.028140708804130554,-0.10652744770050049,-0.0860782265663147,-0.05685276910662651,-0.00808046106249094,-0.003751247189939022,0.10332619585096836,0.05842944327741861,-0.01683623157441616,-0.03233113884925842,-0.04808935313485563,0.12948335288092494,0.059400031343102455,-0.07888491451740265,0.028140708804130554,-0.10652744770050049,-0.0860782265663147,-0.05685276910662651,-0.00808046106249094,-0.003751247189939022,0.10332619585096836,0.05842944327741861,-0.01683623157441616,-0.03233113884925842,-0.05829126993965428,0.12902482849215902,0.053689327575997314,-0.06135923151542544,0.03681553890925526,-0.07976700097005329,-0.07976700097005329,-0.06289321230331124,-0.003067961575771161,-0.0015339807878858025,0.07840346249193288,0.07598181815479055,-0.024373250296405233,-0.038554050468859,,,,,,
22.66330505299993,0.0,0.0,0.28907015736156083,-0.17235126363444003,0.1265363707695889,-0.05818298810189121,-0.004083016708904646,-0.9982975853271858,1.0,1.0,-0.07671776931843206,-0.0,0.07671776931843206,-0.2301533079552962,-0.0,-0.07671776931843206,-0.0,0.0,0.0,0.07671776931843206,0.0,0.0,0.0,-0.15343553863686413,-0.20132586359977722,0.02620050497353077,0.21380093693733215,-0.16826558113098145,0.32672184705734253,0.3945641815662384,0.22121524810791016,-0.21806415915489197,-0.02970696985721588,-0.036821212619543076,-0.07487164437770844,0.19998222589492798,0.09668673574924469,0.09910152852535248,-0.04788800491951406,0.12872317479923368,0.06182781420648098,-0.08133630454540253,0.025829926133155823,-0.10922766476869583,-0.0865914523601532,-0.05451603978872299,-0.00742674246430397,-0.005016513168811798,0.10345513746142387,0.06168926227837801,-0.015098225325345993,-0.03107515349984169,-0.04788800491951406,0.12872317479923368,0.06182781420648098,-0.08133630454540253,0.025829926133155823,-0.10922766476869583,-0.0865914523601532,-0.05451603978872299,-0.00742674246430397,-0.005016513168811798,0.10345513746142387,0.06168926227837801,-0.015098225325345993,-0.03107515349984169,-0.05982525072754008,0.12902482849215902,0.05675728915176892,-0.06442719309119704,0.03681553890925526,-0.0813009817579391,-0.07976700097005329,-0.06289321230331124,-0.0015339807878858025,-0.0015339807878858025,0.07840346249193288,0.07598181815479055,-0.024373250296405233,-0.041622012044630605,,,,,,
22.683879589999947,0.0,0.0,0.30325095753401476,-0.11562806294462433,0.13744467859455345,-0.060215180205342105,-0.009185366472001338,-0.9981431566241454,1.0,1.0,0.0,-0.0,0.15343553863686413,-0.15343553863686413,-0.0,-0.0,-0.0,0.07671776931843206,0.15343553863686413,0.07671776931843206,0.0,-0.07671776931843206,0.0,-0.07671776931843206,-0.19963014125823975,0.02746114507317543,0.2208685278892517,-0.17626038193702698,0.33377909660339355,0.39628365635871887,0.2166544795036316,-0.20198750495910645,-0.025325631722807884,-0.0314045287668705,-0.07378759980201721,0.20825253427028656,0.09764612466096878,0.10035323351621628,-0.04746407433412969,0.12903833482414484,0.06359471194446087,-0.08333500474691391,0.02759423851966858,-0.10879779607057571,-0.08773164451122284,-0.05049687623977661,-0.006331407930701971,-0.003662342205643654,0.10372614860534668,0.06375683937221766,-0.01485837809741497,-0.03076222725212574,-0.04746407433412969,0.12903833482414484,0.06359471194446087,-0.08333500474691391,0.02759423851966858,-0.10879779607057571,-0.08773164451122284,-0.05049687623977661,-0.006331407930701971,-0.003662342205643654,0.10372614860534668,0.06375683937221766,-0.01485837809741497,-0.03076222725212574,-0.05982525072754008,0.12902482849215902,0.05982525072754008,-0.06902913545485401,0.03681553890925526,-0.0813009817579391,-0.07976700097005329,-0.05982525072754008,0.0,-0.0,0.07840346249193288,0.07444783736690519,-0.024373250296405233,-0.044689973620401766,,,,,,
22.704602561,0.0,0.0,0.28579766501407144,-0.09053895494720585,0.09599310885968812,-0.062244865553493685,-0.014285706848342815,-0.9979586641199478,1.0,1.0,0.0,-0.0,0.07671776931843206,-0.15343553863686413,-0.0,-0.0,-0.0,0.07671776931843206,0.07671776931843206,-0.0,0.0,0.0,0.0,-0.07671776931843206,-0.19932696223258972,0.02820119634270668,0.22861072421073914,-0.1870458424091339,0.3194992244243622,0.4041409194469452,0.2222166657447815,-0.19080980122089386,-0.021452903747558594,-0.030514700338244438,-0.0727580264210701,0.19808806478977203,0.08968725055456161,0.0811205580830574,-0.047388279577717185,0.12922334764152765,0.06553026102483273,-0.08603136986494064,0.024024270474910736,-0.10683348029851913,-0.08634109795093536,-0.047702450305223465,-0.0053632259368896484,-0.0034398850984871387,0.10398354195058346,0.061215722002089024,-0.016848096624016762,-0.03557039611041546,-0.047388279577717185,0.12922334764152765,0.06553026102483273,-0.08603136986494064,0.024024270474910736,-0.10683348029851913,-0.08634109795093536,-0.047702450305223465,-0.0053632259368896484,-0.0034398850984871387,0.10398354195058346,0.061215722002089024,-0.016848096624016762,-0.03557039611041546,-0.05982525072754008,0.12902482849215902,0.06135923151542544,-0.07209709703062517,0.03681553890925526,-0.0813009817579391,-0.07976700097005329,-0.05982525072754008,0.0015339807878858025,0.0015339807878858025,0.07840346249193288,0.07444783736690519,-0.024373250296405233,-0.044689973620401766,right_ankle,14,6.9,30,1100,4
22.723582461999968,0.0,0.0,0.24652775684419906,-0.07090400086226964,0.11780972450961724,-0.06325578948973734,-0.019384838714596925,-0.997809066467147,1.0,1.0,0.07671776931843206,-0.0,0.15343553863686413,-0.2301533079552962,-0.0,-0.07671776931843206,-0.0,0.0,0.0,-0.0,0.0,0.0,0.07671776931843206,0.0,-0.18945381045341492,0.026231171563267708,0.22309929132461548,-0.1843450665473938,0.31909069418907166,0.3929893970489502,0.22178751230239868,-0.1928277313709259,-0.01809000037610531,-0.030639108270406723,-0.07128246128559113,0.20618562400341034,0.09354627877473831,0.08437241613864899,-0.044919991632923484,0.1287308414466679,0.06415240280330181,-0.08535617589950562,0.023922137916088104,-0.10962136089801788,-0.08644838631153107,-0.048206932842731476,-0.004522500094026327,-0.00347098708152771,0.1043524332344532,0.0632401118054986,-0.015883339568972588,-0.03475743159651756,-0.044919991632923484,0.1287308414466679,0.06415240280330181,-0.08535617589950562,0.023922137916088104,-0.10962136089801788,-0.08644838631153107,-0.048206932842731476,-0.004522500094026327,-0.00347098708152771,0.1043524332344532,0.0632401118054986,-0.015883339568972588,-0.03475743159651756,-0.05829126993965428,0.12902482849215902,0.06289321230331124,-0.07669903939428213,0.035281558121369905,-0.08436894333371026,-0.07976700097005329,-0.05829126993965428,0.0015339807878858025,0.0015339807878858025,0.07840346249193288,0.07444783736690519,-0.02283926950851943,-0.044689973620401766,,,,,,
22.743683605,0.0,0.0,0.23561944901923448,-0.07635815477475191,0.1090830782496456,-0.06426624464307876,-0.02346227979033034,-0.9976569406496987,1.0,1.0,0.15343553863686413,-0.0,-0.0,-0.15343553863686413,-0.07671776931843206,-0.15343553863686413,-0.0,0.07671776931843206,0.0,-0.0,0.0,-0.07671776931843206,0.0,0.0,-0.17905834317207336,0.024897096678614616,0.2281508445739746,-0.18624767661094666,0.3125743269920349,0.377225399017334,0.21842819452285767,-0.1977735012769699,-0.01735399290919304,-0.02845308743417263,-0.07259195297956467,0.21319732069969177,0.10257089138031006,0.10106250643730164,-0.042321124812588096,0.12839732272550464,0.0654152911156416,-0.08583182841539383,0.02229304611682892,-0.11356236040592194,-0.08728821575641632,-0.04944337531924248,-0.00433849822729826,-0.0029244818724691868,0.10402506031095982,0.06499303597956896,-0.013627186417579651,-0.0305849090218544,-0.042321124812588096,0.12839732272550464,0.0654152911156416,-0.08583182841539383,0.02229304611682892,-0.11356236040592194,-0.08728821575641632,-0.04944337531924248,-0.00433849822729826,-0.0029244818724691868,0.10402506031095982,0.06499303597956896,-0.013627186417579651,-0.0305849090218544,-0.05522330836388312,0.12902482849215902,0.06442719309119704,-0.07976700097005329,0.035281558121369905,-0.08743690490948142,-0.07976700097005329,-0.05829126993965428,0.0015339807878858025,0.0015339807878858025,0.07840346249193288,0.07291385657901939,-0.02283926950851943,-0.044689973620401766,,,,,,
22.76373011499993,0.0,0.0,0.11344640137963143,-0.04908738521234052,0.07417649320975901,-0.06528043403799276,-0.024480162764247283,-0.9975666326430768,1.0,1.0,0.0,-0.0,0.07671776931843206,-0.15343553863686413,-0.0,-0.15343553863686413,-0.0,0.0,0.0,-0.0,0.0,0.0,0.0,0.0,-0.1618330329656601,0.018254699185490608,0.19824203848838806,-0.15462100505828857,0.3066457509994507,0.3645652234554291,0.2224927842617035,-0.19260907173156738,-0.013956193812191486,-0.039288170635700226,-0.0724242553114891,0.2197704315185547,0.10126789659261703,0.10540571808815002,-0.03801479726098478,0.12673672335222363,0.05793808959424496,-0.07792516052722931,0.02081090211868286,-0.11672740429639816,-0.08627206832170486,-0.048152267932891846,-0.0034890484530478716,-0.005633252672851086,0.1040669847279787,0.06663631368428469,-0.013952935114502907,-0.029499106109142303,-0.03801479726098478,0.12673672335222363,0.05793808959424496,-0.07792516052722931,0.02081090211868286,-0.11672740429639816,-0.08627206832170486,-0.048152267932891846,-0.0034890484530478716,-0.005633252672851086,0.1040669847279787,0.06663631368428469,-0.013952935114502907,-0.029499106109142303,-0.053689327575997314,0.12902482849215902,0.0659611738790824,-0.08283496254582445,0.035281558121369905,-0.09203884727313838,-0.07976700097005329,-0.05522330836388312,0.0015339807878858025,0.0015339807878858025,0.07840346249193288,0.07291385657901939,-0.02283926950851943,-0.044689973620401766,,,,,,
22.78386516799992,0.0,0.0,0.06981317007977318,-0.03381575425739013,0.001090830782496456,-0.06629254403281365,-0.02651701761312546,-0.9974478163706423,1.0,1.0,0.15343553863686413,-0.0,0.07671776931843206,-0.15343553863686413,-0.0,-0.2301533079552962,-0.0,0.15343553863686413,0.0,-0.0,0.0,0.0,0.0,0.0,-0.14551052451133728,0.019776733592152596,0.18081189692020416,-0.12048323452472687,0.2957977056503296,0.3522155284881592,0.22269660234451294,-0.20612682402133942,-0.009831443428993225,-0.03611134737730026,-0.0756530836224556,0.2165493667125702,0.10356242209672928,0.10821101814508438,-0.033934170147404075,0.12711723195388913,0.05358055420219898,-0.06939071789383888,0.018098890781402588,-0.11981482803821564,-0.0862211138010025,-0.051531706005334854,-0.0024578608572483063,-0.004839046858251095,0.10325977765023708,0.06583104748278856,-0.013379303738474846,-0.028797781094908714,-0.033934170147404075,0.12711723195388913,0.05358055420219898,-0.06939071789383888,0.018098890781402588,-0.11981482803821564,-0.0862211138010025,-0.051531706005334854,-0.0024578608572483063,-0.004839046858251095,0.10325977765023708,0.06583104748278856,-0.013379303738474846,-0.028797781094908714,-0.052155346788111956,0.12902482849215902,0.0659611738790824,-0.08283496254582445,0.035281558121369905,-0.09664078963679534,-0.07976700097005329,-0.053689327575997314,0.003067961575771161,0.0015339807878858025,0.07840346249193288,0.07291385657901939,-0.02283926950851943,-0.044689973620401766,,,,,,
22.80482950199996,0.0,0.0,0.03490658503988659,-0.014180800172453928,-0.028361600344907856,-0.0673059887688094,-0.027534268132694755,-0.997352379028721,1.0,1.0,0.07671776931843206,-0.0,-0.0,-0.0,-0.0,-0.2301533079552962,-0.0,0.07671776931843206,0.07671776931843206,-0.0,0.0,0.0,0.0,0.0,-0.1345425695180893,0.019358186051249504,0.16320931911468506,-0.0980384349822998,0.2861749827861786,0.3389739692211151,0.22908031940460205,-0.18874236941337585,-0.008708111941814423,-0.04569992423057556,-0.07759353518486023,0.2271946668624878,0.10986658930778503,0.11088310182094574,-0.031192181399092078,0.12701259506866336,0.049179909750819206,-0.06377951800823212,0.015693210065364838,-0.12312521785497665,-0.08462518453598022,-0.047185592353343964,-0.0021770279854536057,-0.00723619107156992,0.10277466475963593,0.06849237252026796,-0.011803261935710907,-0.028129760175943375,-0.031192181399092078,0.12701259506866336,0.049179909750819206,-0.06377951800823212,0.015693210065364838,-0.12312521785497665,-0.08462518453598022,-0.047185592353343964,-0.0021770279854536057,-0.00723619107156992,0.10277466475963593,0.06849237252026796,-0.011803261935710907,-0.028129760175943375,-0.05062136600022615,0.12902482849215902,0.0659611738790824,-0.08283496254582445,0.035281558121369905,-0.0997087512125665,-0.07976700097005329,-0.052155346788111956,0.003067961575771161,0.0015339807878858025,0.07840346249193288,0.07291385657901939,-0.02283926950851943,-0.044689973620401766,left_hip_pitch,22,7.0,30,1070,1
22.823840367999992,0.0,0.0,0.011999138607461015,-0.006544984694978736,-0.09053895494720585,-0.0673059887688094,-0.027534268132694755,-0.997352379028721,1.0,1.0,0.15343553863686413,-0.0,-0.0,-0.0,-0.0,-0.15343553863686413,-0.0,0.07671776931843206,0.0,-0.0,0.0,0.0,0.0,0.0,-0.1208072081208229,0.023171762004494667,0.154219388961792,-0.07349085807800293,0.2788087725639343,0.3320572078227997,0.23156198859214783,-0.19759118556976318,-0.008200172334909439,-0.043934375047683716,-0.08023485541343689,0.21872273087501526,0.11005891114473343,0.1086999922990799,-0.02775834104977548,0.12796598905697465,0.04693242721259594,-0.0576426237821579,0.013851657509803772,-0.12485440820455551,-0.08400476723909378,-0.049397796392440796,-0.0020500430837273598,-0.006794803775846958,0.10211433470249176,0.06637438852339983,-0.011755181476473808,-0.028675537556409836,-0.02775834104977548,0.12796598905697465,0.04693242721259594,-0.0576426237821579,0.013851657509803772,-0.12485440820455551,-0.08400476723909378,-0.049397796392440796,-0.0020500430837273598,-0.006794803775846958,0.10211433470249176,0.06637438852339983,-0.011755181476473808,-0.028675537556409836,-0.04755340442445499,0.12902482849215902,0.0659611738790824,-0.08283496254582445,0.035281558121369905,-0.10277671278833811,-0.07976700097005329,-0.05062136600022615,0.003067961575771161,0.0015339807878858025,0.07840346249193288,0.07291385657901939,-0.02283926950851943,-0.044689973620401766,,,,,,
22.843938454999943,0.0,0.0,-0.001090830782496456,0.013089969389957472,-0.08617563181722002,-0.06629071679421053,-0.027536143899133603,-0.997420323457506,1.0,1.0,0.15343553863686413,-0.0,-0.07671776931843206,0.07671776931843206,-0.15343553863686413,-0.15343553863686413,-0.0,0.0,0.0,-0.0,0.0,0.0,0.0,0.0,-0.11292147636413574,0.02544500306248665,0.1468035876750946,-0.057390764355659485,0.2713262438774109,0.32794538140296936,0.23758742213249207,-0.19887784123420715,-0.009643521159887314,-0.04274212568998337,-0.08221850544214249,0.21197396516799927,0.10324428975582123,0.09962363541126251,-0.02578690811060369,0.12853429932147264,0.04507847689092159,-0.05361760035157204,0.011981025338172913,-0.1258823648095131,-0.08249840885400772,-0.04971946030855179,-0.0024108802899718285,-0.006496741436421871,0.10161842219531536,0.06468719709664583,-0.013458836823701859,-0.03094462677836418,-0.02578690811060369,0.12853429932147264,0.04507847689092159,-0.05361760035157204,0.011981025338172913,-0.1258823648095131,-0.08249840885400772,-0.04971946030855179,-0.0024108802899718285,-0.006496741436421871,0.10161842219531536,0.06468719709664583,-0.013458836823701859,-0.03094462677836418,-0.04448544284868339,0.12902482849215902,0.06442719309119704,-0.07669903939428213,0.0322135965455983,-0.10431069357622347,-0.07976700097005329,-0.05062136600022615,0.003067961575771161,0.0015339807878858025,0.07840346249193288,0.07291385657901939,-0.02283926950851943,-0.044689973620401766,,,,,,
22.864024078999932,0.0,0.0,-0.004363323129985824,0.011999138607461015,-0.07635815477475191,-0.06629071679421053,-0.027536143899133603,-0.997420323457506,1.0,1.0,0.15343553863686413,-0.0,-0.07671776931843206,0.3835888465921603,-0.2301533079552962,-0.07671776931843206,-0.0,0.0,0.0,-0.0,0.0,0.0,0.07671776931843206,0.0,-0.10754970461130142,0.023504316806793213,0.13835491240024567,-0.03681766986846924,0.27712583541870117,0.3169552683830261,0.2368486523628235,-0.2038222849369049,-0.010619203560054302,-0.0431581549346447,-0.08192002773284912,0.21146389842033386,0.10246671736240387,0.10460640490055084,-0.02444396517239511,0.12804912775754929,0.04296630807220936,-0.048474326729774475,0.013430923223495483,-0.1286298930644989,-0.08268310129642487,-0.05095557123422623,-0.0026548008900135756,-0.006600748747587204,0.1016930416226387,0.06455968040972948,-0.013653229922056198,-0.0296989344060421,-0.02444396517239511,0.12804912775754929,0.04296630807220936,-0.048474326729774475,0.013430923223495483,-0.1286298930644989,-0.08268310129642487,-0.05095557123422623,-0.0026548008900135756,-0.006600748747587204,0.1016930416226387,0.06455968040972948,-0.013653229922056198,-0.0296989344060421,-0.04141748127291223,0.12902482849215902,0.05982525072754008,-0.06902913545485401,0.027611654181941336,-0.10737865515199507,-0.07976700097005329,-0.05062136600022615,0.003067961575771161,0.0015339807878858025,0.07840346249193288,0.07291385657901939,-0.021305288720634072,-0.044689973620401766,,,,,,
22.884043292,0.0,0.0,-0.015271630954950384,0.017453292519943295,-0.04363323129985824,-0.06629071679421053,-0.027536143899133603,-0.997420323457506,1.0,1.0,0.07671776931843206,-0.0,-0.2301533079552962,0.3835888465921603,-0.15343553863686413,-0.07671776931843206,-0.0,-0.07671776931843206,0.0,-0.07671776931843206,0.0,0.0,0.0,0.07671776931843206,-0.09868592023849487,0.02814241498708725,0.1301596760749817,-0.02278110384941101,0.26793795824050903,0.3190063536167145,0.23871693015098572,-0.207959845662117,-0.013637106865644455,-0.04726627469062805,-0.08447321504354477,0.1994652897119522,0.09428901225328445,0.09779946506023407,-0.022228019079193473,0.1292086523026228,0.040917498990893364,-0.04496518522500992,0.011133953928947449,-0.1281171217560768,-0.08221603184938431,-0.05198996141552925,-0.0034092767164111137,-0.007627778686583042,0.10105474479496479,0.06156002823263407,-0.015697656199336052,-0.03140066936612129,-0.022228019079193473,0.1292086523026228,0.040917498990893364,-0.04496518522500992,0.011133953928947449,-0.1281171217560768,-0.08221603184938431,-0.05198996141552925,-0.0034092767164111137,-0.007627778686583042,0.10105474479496479,0.06156002823263407,-0.015697656199336052,-0.03140066936612129,-0.038349519697141066,0.12902482849215902,0.05522330836388312,-0.06135923151542544,0.024543692606170175,-0.10737865515199507,-0.07976700097005329,-0.052155346788111956,0.003067961575771161,-0.0,0.07840346249193288,0.07291385657901939,-0.021305288720634072,-0.04315599283251596,,,,,,
22.905144984999993,0.0,0.0,-0.032724923474893676,0.015271630954950384,-0.0545415391248228,-0.06629071679421053,-0.027536143899133603,-0.997420323457506,1.0,1.0,0.2301533079552962,-0.0,-0.15343553863686413,0.3835888465921603,-0.07671776931843206,-0.0,-0.0,0.0,-0.07671776931843206,-0.07671776931843206,0.0,0.0,0.0,0.0,-0.09154451638460159,0.02791477181017399,0.1215977668762207,-0.003649398684501648,0.2662760019302368,0.3167131841182709,0.24196520447731018,-0.22459092736244202,-0.014993294142186642,-0.05079042539000511,-0.08545615524053574,0.19537802040576935,0.08739162236452103,0.09466718137264252,-0.020442668115720153,0.12915174150839448,0.03877702169120312,-0.04018225893378258,0.010718464851379395,-0.1286904141306877,-0.08140396326780319,-0.056147731840610504,-0.0037483235355466604,-0.008508816361427307,0.10080900974571705,0.06053821090608835,-0.01742200367152691,-0.03218374028801918,-0.020442668115720153,0.12915174150839448,0.03877702169120312,-0.04018225893378258,0.010718464851379395,-0.1286904141306877,-0.08140396326780319,-0.056147731840610504,-0.0037483235355466604,-0.008508816361427307,0.10080900974571705,0.06053821090608835,-0.01742200367152691,-0.03218374028801918,-0.035281558121369905,0.12902482849215902,0.052155346788111956,-0.05522330836388312,0.023009711818284817,-0.10737865515199507,-0.07976700097005329,-0.052155346788111956,0.0015339807878858025,-0.0015339807878858025,0.07840346249193288,0.07291385657901939,-0.021305288720634072,-0.04315599283251596,right_hip_pitch,12,7.0,31,68,3
22.924163536999913,0.0,0.0,-0.032724923474893676,0.015271630954950384,-0.0545415391248228,-0.06629071679421053,-0.027536143899133603,-0.997420323457506,1.0,1.0,0.15343553863686413,-0.0,-0.2301533079552962,0.30687107727372825,-0.15343553863686413,-0.0,-0.0,0.0,0.0,-0.07671776931843206,0.0,0.0,0.0,0.0,-0.08388946950435638,0.02998838946223259,0.1191251277923584,0.006808251142501831,0.2553618848323822,0.3136431872844696,0.2509114742279053,-0.21186257898807526,-0.01656327396631241,-0.05467534810304642,-0.08671688288450241,0.18991467356681824,0.08392157405614853,0.09073156118392944,-0.01852890639565885,0.12967014592140913,0.03815886192023754,-0.03756784647703171,0.007989935576915741,-0.12945791333913803,-0.07916739583015442,-0.052965644747018814,-0.004140818491578102,-0.009480047039687634,0.10049382783472538,0.059172374196350574,-0.018289515748620033,-0.03316764533519745,-0.01852890639565885,0.12967014592140913,0.03815886192023754,-0.03756784647703171,0.007989935576915741,-0.12945791333913803,-0.07916739583015442,-0.052965644747018814,-0.004140818491578102,-0.009480047039687634,0.10049382783472538,0.059172374196350574,-0.018289515748620033,-0.03316764533519745,-0.0322135965455983,0.12902482849215902,0.04908738521234035,-0.04755340442445499,0.019941750242513212,-0.10737865515199507,-0.07976700097005329,-0.052155346788111956,0.0015339807878858025,-0.003067961575771161,0.07840346249193288,0.07291385657901939,-0.021305288720634072,-0.04315599283251596,,,,,,
22.944272662000003,0.0,0.0,-0.03381575425739013,0.01090830782496456,-0.08726646259971647,-0.06629254403281365,-0.02651701761312546,-0.9974478163706423,1.0,1.0,0.07671776931843206,-0.0,-0.15343553863686413,0.2301533079552962,-0.0,-0.0,-0.0,-0.07671776931843206,0.0,-0.07671776931843206,0.0,0.0,0.0,0.0,-0.08345956355333328,0.027901500463485718,0.10877859592437744,0.02024029940366745,0.2621869742870331,0.30955570936203003,0.2546544671058655,-0.21954423189163208,-0.015532449819147587,-0.0616854727268219,-0.08401843160390854,0.19237971305847168,0.07900127023458481,0.09185759723186493,-0.018421429907903075,0.1291484236717224,0.0355722289532423,-0.0342098344117403,0.00969620794057846,-0.13047978281974792,-0.07823164761066437,-0.05488605797290802,-0.0038831124547868967,-0.011232578195631504,0.10116844065487385,0.059788634069263935,-0.019519591704010963,-0.03288613632321358,-0.018421429907903075,0.1291484236717224,0.0355722289532423,-0.0342098344117403,0.00969620794057846,-0.13047978281974792,-0.07823164761066437,-0.05488605797290802,-0.0038831124547868967,-0.011232578195631504,0.10116844065487385,0.059788634069263935,-0.019519591704010963,-0.03288613632321358,-0.03067961575771294,0.12902482849215902,0.04601942363656919,-0.04295146206079803,0.019941750242513212,-0.10891263593988043,-0.07976700097005329,-0.053689327575997314,0.0015339807878858025,-0.004601942363656963,0.07840346249193288,0.07291385657901939,-0.021305288720634072,-0.04315599283251596,,,,,,
22.96437734199992,0.0,0.0,-0.07853981633974483,0.02399827721492203,-0.07635815477475191,-0.06629430246167727,-0.02549780863910664,-0.9974742739618517,1.0,1.0,0.07671776931843206,-0.0,-0.07671776931843206,0.2301533079552962,-0.0,-0.15343553863686413,-0.0,0.0,0.0,-0.0,0.0,0.0,0.0,0.0,-0.07609399408102036,0.03156432509422302,0.10591210424900055,0.03933881223201752,0.2512872815132141,0.3053054213523865,0.25666123628616333,-0.23396380245685577,-0.01407927181571722,-0.060422927141189575,-0.08771965652704239,0.18438611924648285,0.07378751784563065,0.09101229161024094,-0.016580037539824843,0.13006412982940674,0.03485560603439808,-0.029435206204652786,0.006971284747123718,-0.1315423548221588,-0.0777299553155899,-0.058490950614213943,-0.003519817953929305,-0.010916941799223423,0.10024313442409039,0.05779023561626673,-0.020823029801249504,-0.033097462728619576,-0.016580037539824843,0.13006412982940674,0.03485560603439808,-0.029435206204652786,0.006971284747123718,-0.1315423548221588,-0.0777299553155899,-0.058490950614213943,-0.003519817953929305,-0.010916941799223423,0.10024313442409039,0.05779023561626673,-0.020823029801249504,-0.033097462728619576,-0.02914563496982714,0.12902482849215902,0.04448544284868339,-0.038349519697141066,0.019941750242513212,-0.11198059751565159,-0.07976700097005329,-0.053689327575997314,0.0015339807878858025,-0.004601942363656963,0.07840346249193288,0.07291385657901939,-0.021305288720634072,-0.04315599283251596,,,,,,
22.984372442999984,0.0,0.0,-0.11671889372712078,0.019634954084936207,-0.08944812416470939,-0.06731298946142635,-0.023457556933527364,-0.9974561165647722,1.0,1.0,0.07671776931843206,-0.0,-0.15343553863686413,0.2301533079552962,-0.0,-0.07671776931843206,-0.0,0.0,0.0,-0.0,0.0,0.0,0.0,0.0,-0.07193748652935028,0.02968723326921463,0.10176257789134979,0.060457587242126465,0.2527465224266052,0.29673564434051514,0.2536979019641876,-0.22356347739696503,-0.012848879210650921,-0.07152976095676422,-0.0891946330666542,0.191794291138649,0.08313138037919998,0.10275112092494965,-0.015540910651907325,0.12959485687315464,0.03381822444498539,-0.02415551245212555,0.007336094975471497,-0.13368479907512665,-0.07847078889608383,-0.05589086934924126,-0.0032122198026627302,-0.013693650253117085,0.09987439028918743,0.05964227858930826,-0.01848706416785717,-0.030162755399942398,-0.015540910651907325,0.12959485687315464,0.03381822444498539,-0.02415551245212555,0.007336094975471497,-0.13368479907512665,-0.07847078889608383,-0.05589086934924126,-0.0032122198026627302,-0.013693650253117085,0.09987439028918743,0.05964227858930826,-0.01848706416785717,-0.030162755399942398,-0.027611654181941336,0.12902482849215902,0.04295146206079803,-0.035281558121369905,0.019941750242513212,-0.1135145783035374,-0.07976700097005329,-0.053689327575997314,0.0015339807878858025,-0.004601942363656963,0.07840346249193288,0.07291385657901939,-0.021305288720634072,-0.04315599283251596,,,,,,
23.005682497999942,0.0,0.0,-0.1090830782496456,0.018544123302439753,-0.026179938779914945,-0.06630206190684289,-0.020400634432874737,-0.9975910237675745,1.0,1.0,0.07671776931843206,-0.0,-0.07671776931843206,0.15343553863686413,-0.0,-0.07671776931843206,0.15343553863686413,0.0,0.0,-0.07671776931843206,0.0,0.0,0.0,0.0,-0.06862339377403259,0.031450942158699036,0.09357963502407074,0.06833568215370178,0.2475934624671936,0.29702097177505493,0.261648565530777,-0.2247381955385208,-0.01428724080324173,-0.07473507523536682,-0.09038940817117691,0.18875686824321747,0.07368706911802292,0.09875752031803131,-0.014712387463077903,0.13003578409552574,0.031772488728165627,-0.02218598872423172,0.006047829985618591,-0.1336134672164917,-0.07648312300443649,-0.0561845488846302,-0.0035718102008104324,-0.014494978822767735,0.09957569651305676,0.05888292286545038,-0.020848141983151436,-0.031161155551671982,-0.014712387463077903,0.13003578409552574,0.031772488728165627,-0.02218598872423172,0.006047829985618591,-0.1336134672164917,-0.07648312300443649,-0.0561845488846302,-0.0035718102008104324,-0.014494978822767735,0.09957569651305676,0.05888292286545038,-0.020848141983151436,-0.031161155551671982,-0.026077673394055978,0.12902482849215902,0.04141748127291223,-0.03067961575771294,0.019941750242513212,-0.11658253987930856,-0.07669903939428213,-0.053689327575997314,0.0015339807878858025,-0.006135923151542766,0.07840346249193288,0.07291385657901939,-0.021305288720634072,-0.04315599283251596,left_knee,23,7.1,30,31,0
23.02463056499994,0.0,0.0,-0.1341721862470641,0.02181661564992912,0.01090830782496456,-0.06630340715442232,-0.01938099593744652,-0.9976112645696157,1.0,1.0,0.0,-0.0,-0.0,0.2301533079552962,-0.0,-0.15343553863686413,0.15343553863686413,0.0,0.0,-0.07671776931843206,0.0,0.0,0.07671776931843206,0.0,-0.06938937306404114,0.03309096395969391,0.08468414843082428,0.07819809019565582,0.23996323347091675,0.2988380491733551,0.27596402168273926,-0.22645631432533264,-0.014150254428386688,-0.08015290647745132,-0.0908004567027092,0.18776960670948029,0.06616834551095963,0.0871453732252121,-0.014903882285580039,0.13044578954577446,0.02954861707985401,-0.01972038671374321,0.0041402727365493774,-0.13315919786691666,-0.07290425896644592,-0.05661407858133316,-0.003537563607096672,-0.01584943663328886,0.09947293438017368,0.05863610748201609,-0.02272782288491726,-0.034064192324876785,-0.014903882285580039,0.13044578954577446,0.02954861707985401,-0.01972038671374321,0.0041402727365493774,-0.13315919786691666,-0.07290425896644592,-0.05661407858133316,-0.003537563607096672,-0.01584943663328886,0.09947293438017368,0.05863610748201609,-0.02272782288491726,-0.034064192324876785,-0.026077673394055978,0.12902482849215902,0.03988350048502687,-0.026077673394055978,0.019941750242513212,-0.11811652066719436,-0.07363107781851097,-0.053689327575997314,0.0015339807878858025,-0.007669903939428124,0.07840346249193288,0.07291385657901939,-0.01977130793274827,-0.04315599283251596,,,,,,
23.044852324999965,0.0,0.0,-0.17453292519943295,0.0272707695624114,0.006544984694978736,-0.06529235702967857,-0.015302896178830913,-0.9977488308597755,1.0,1.0,0.0,-0.0,-0.07671776931843206,0.2301533079552962,-0.0,-0.07671776931843206,0.07671776931843206,0.0,0.0,-0.07671776931843206,0.0,0.0,0.07671776931843206,0.07671776931843206,-0.0708196833729744,0.03472419083118439,0.08002565801143646,0.09461411833763123,0.23362991213798523,0.3035988211631775,0.28371819853782654,-0.23044902086257935,-0.013792126439511776,-0.08750488609075546,-0.09185024350881577,0.18386070430278778,0.06602026522159576,0.08843286335468292,-0.015261459862813354,0.13085409626364708,0.028383994475007057,-0.015616379678249359,0.002556942403316498,-0.13196900486946106,-0.0709657147526741,-0.057612255215644836,-0.003448031609877944,-0.017687431536614895,0.09921048767864704,0.05765888188034296,-0.022764842957258224,-0.03374231979250908,-0.015261459862813354,0.13085409626364708,0.028383994475007057,-0.015616379678249359,0.002556942403316498,-0.13196900486946106,-0.0709657147526741,-0.057612255215644836,-0.003448031609877944,-0.017687431536614895,0.09921048767864704,0.05765888188034296,-0.022764842957258224,-0.03374231979250908,-0.026077673394055978,0.12902482849215902,0.038349519697141066,-0.021475731030399015,0.019941750242513212,-0.11811652066719436,-0.07209709703062517,-0.053689327575997314,0.0015339807878858025,-0.009203884727313927,0.07840346249193288,0.07291385657901939,-0.018237327144862467,-0.0400880312567448,,,,,,
23.064826053999923,0.0,0.0,-0.16580627893946132,0.017453292519943295,0.018544123302439753,-0.06529425987772457,-0.013262896537662803,-0.9977779087564784,1.0,1.0,0.0,-0.0,-0.07671776931843206,0.2301533079552962,-0.0,-0.0,0.15343553863686413,0.0,0.0,-0.0,0.0,0.0,0.0,0.07671776931843206,-0.07340789586305618,0.03428662568330765,0.07792860269546509,0.0999215692281723,0.2277841866016388,0.3062589764595032,0.2912493944168091,-0.2343948930501938,-0.012737518176436424,-0.0880792886018753,-0.09130141884088516,0.18291249871253967,0.061994895339012146,0.08569413423538208,-0.0159085129853338,0.1307447049766779,0.027859730646014214,-0.01428951695561409,0.001095511019229889,-0.13130396604537964,-0.06908291578292847,-0.05859872326254845,-0.003184379544109106,-0.017831032164394855,0.09934769384562969,0.05742183048278093,-0.02377118542790413,-0.03442700207233429,-0.0159085129853338,0.1307447049766779,0.027859730646014214,-0.01428951695561409,0.001095511019229889,-0.13130396604537964,-0.06908291578292847,-0.05859872326254845,-0.003184379544109106,-0.017831032164394855,0.09934769384562969,0.05742183048278093,-0.02377118542790413,-0.03442700207233429,-0.026077673394055978,0.12902482849215902,0.038349519697141066,-0.018407769454627854,0.019941750242513212,-0.11811652066719436,-0.06902913545485401,-0.053689327575997314,0.0015339807878858025,-0.009203884727313927,0.07840346249193288,0.07291385657901939,-0.018237327144862467,-0.0400880312567448,,,,,,
23.08479996899996,0.0,0.0,-0.13526301702956053,0.006544984694978736,-0.06326818538479445,-0.06529725040366925,-0.00918242583801599,-0.9978236077310707,1.0,1.0,0.0,-0.0,-0.0,0.15343553863686413,-0.0,-0.0,0.07671776931843206,0.0,0.0,-0.0,0.0,0.0,0.0,0.07671776931843206,-0.07755779474973679,0.035092856734991074,0.07915875315666199,0.09404347836971283,0.22361183166503906,0.3123247027397156,0.29887306690216064,-0.23188979923725128,-0.011322112753987312,-0.08442404121160507,-0.08903537690639496,0.17029376327991486,0.05725814402103424,0.07905618846416473,-0.01694598770700395,0.13094626273959875,0.02816726826131344,-0.015759039670228958,5.2422285079956055e-05,-0.12978753447532654,-0.06717699766159058,-0.05797244980931282,-0.002830528188496828,-0.016917220316827297,0.09991420432925224,0.05426714662462473,-0.024955373257398605,-0.036086488515138626,-0.01694598770700395,0.13094626273959875,0.02816726826131344,-0.015759039670228958,5.2422285079956055e-05,-0.12978753447532654,-0.06717699766159058,-0.05797244980931282,-0.002830528188496828,-0.016917220316827297,0.09991420432925224,0.05426714662462473,-0.024955373257398605,-0.036086488515138626,-0.026077673394055978,0.12902482849215902,0.03681553890925526,-0.015339807878856249,0.019941750242513212,-0.11811652066719436,-0.0674951546669682,-0.053689327575997314,0.0015339807878858025,-0.009203884727313927,0.07840346249193288,0.07291385657901939,-0.018237327144862467,-0.038554050468859,,,,,,
23.10598392499992,0.0,0.0,-0.18871372537188688,0.03490658503988659,0.018544123302439753,-0.06428310392528937,-0.005101833644864236,-0.9979186609354445,1.0,1.0,0.0,-0.0,-0.07671776931843206,0.07671776931843206,-0.0,-0.0,0.15343553863686413,0.0,0.0,-0.0,0.0,0.0,0.07671776931843206,0.0,-0.08153949677944183,0.036374807357788086,0.06953872740268707,0.10210400819778442,0.2189197838306427,0.3206908702850342,0.30554091930389404,-0.22890165448188782,-0.009736480191349983,-0.08779299259185791,-0.09055154025554657,0.17284229397773743,0.05429840087890625,0.07896984368562698,-0.017941413214430213,0.131266750395298,0.02576226182281971,-0.01374390721321106,-0.0011205896735191345,-0.1276959925889969,-0.06551003456115723,-0.057225413620471954,-0.002434120047837496,-0.017759458161890507,0.09953516349196434,0.05490427929908037,-0.025695309042930603,-0.036108074709773064,-0.017941413214430213,0.131266750395298,0.02576226182281971,-0.01374390721321106,-0.0011205896735191345,-0.1276959925889969,-0.06551003456115723,-0.057225413620471954,-0.002434120047837496,-0.017759458161890507,0.09953516349196434,0.05490427929908037,-0.025695309042930603,-0.036108074709773064,-0.026077673394055978,0.12902482849215902,0.035281558121369905,-0.012271846303085088,0.019941750242513212,-0.11811652066719436,-0.06442719309119704,-0.053689327575997314,0.0015339807878858025,-0.009203884727313927,0.07840346249193288,0.07444783736690519,-0.01670334635697711,-0.03702006968097364,right_knee,13,6.9,31,53,2
23.12496480799996,0.0,0.0,-0.16689710972195776,0.015271630954950384,-0.014180800172453928,-0.06428340510449454,-0.004081486038380606,-0.997923336384058,1.0,1.0,0.0,-0.0,-0.07671776931843206,0.07671776931843206,-0.0,-0.0,0.15343553863686413,0.0,0.0,-0.15343553863686413,0.0,0.07671776931843206,0.0,0.07671776931843206,-0.08276323974132538,0.036549199372529984,0.06735154986381531,0.1016969159245491,0.2179540991783142,0.3246731460094452,0.3128093481063843,-0.23349158465862274,-0.010058891028165817,-0.09459541738033295,-0.08813152462244034,0.17758797109127045,0.050102367997169495,0.0753881186246872,-0.0182473489549011,0.13131034839898348,0.02521546743810177,-0.01384568028151989,-0.0013620108366012573,-0.12670042365789413,-0.06369292736053467,-0.058372896164655685,-0.0025147227570414543,-0.019460064359009266,0.1001401674002409,0.05609069857746363,-0.026744317263364792,-0.03700350597500801,-0.0182473489549011,0.13131034839898348,0.02521546743810177,-0.01384568028151989,-0.0013620108366012573,-0.12670042365789413,-0.06369292736053467,-0.058372896164655685,-0.0025147227570414543,-0.019460064359009266,0.1001401674002409,0.05609069857746363,-0.026744317263364792,-0.03700350597500801,-0.026077673394055978,0.12902482849215902,0.035281558121369905,-0.010737865515199285,0.019941750242513212,-0.11811652066719436,-0.06135923151542544,-0.053689327575997314,0.0015339807878858025,-0.012271846303085088,0.07840346249193288,0.07444783736690519,-0.01670334635697711,-0.03702006968097364,,,,,,
