time_s,forward_cmd_m_s,yaw_cmd_rad_s,gyro_x,gyro_y,gyro_z,grav_x,grav_y,grav_z,left_contact,right_contact,left_hip_yaw_velocity_rad_s,left_hip_roll_velocity_rad_s,left_hip_pitch_velocity_rad_s,left_knee_velocity_rad_s,left_ankle_velocity_rad_s,neck_pitch_velocity_rad_s,head_pitch_velocity_rad_s,head_yaw_velocity_rad_s,head_roll_velocity_rad_s,right_hip_yaw_velocity_rad_s,right_hip_roll_velocity_rad_s,right_hip_pitch_velocity_rad_s,right_knee_velocity_rad_s,right_ankle_velocity_rad_s,left_hip_yaw_action,left_hip_roll_action,left_hip_pitch_action,left_knee_action,left_ankle_action,neck_pitch_action,head_pitch_action,head_yaw_action,head_roll_action,right_hip_yaw_action,right_hip_roll_action,right_hip_pitch_action,right_knee_action,right_ankle_action,left_hip_yaw_unclipped_target_rad,left_hip_roll_unclipped_target_rad,left_hip_pitch_unclipped_target_rad,left_knee_unclipped_target_rad,left_ankle_unclipped_target_rad,neck_pitch_unclipped_target_rad,head_pitch_unclipped_target_rad,head_yaw_unclipped_target_rad,head_roll_unclipped_target_rad,right_hip_yaw_unclipped_target_rad,right_hip_roll_unclipped_target_rad,right_hip_pitch_unclipped_target_rad,right_knee_unclipped_target_rad,right_ankle_unclipped_target_rad,left_hip_yaw_target_rad,left_hip_roll_target_rad,left_hip_pitch_target_rad,left_knee_target_rad,left_ankle_target_rad,neck_pitch_target_rad,head_pitch_target_rad,head_yaw_target_rad,head_roll_target_rad,right_hip_yaw_target_rad,right_hip_roll_target_rad,right_hip_pitch_target_rad,right_knee_target_rad,right_ankle_target_rad,left_hip_yaw_actual_rad,left_hip_roll_actual_rad,left_hip_pitch_actual_rad,left_knee_actual_rad,left_ankle_actual_rad,neck_pitch_actual_rad,head_pitch_actual_rad,head_yaw_actual_rad,head_roll_actual_rad,right_hip_yaw_actual_rad,right_hip_roll_actual_rad,right_hip_pitch_actual_rad,right_knee_actual_rad,right_ankle_actual_rad,telemetry_joint,telemetry_servo_id,voltage_V,temperature_raw,load_word_raw,current_word_raw
9.713414518000008,0.0,0.0,0.002181661564992912,-0.006544984694978736,-0.006544984694978736,-0.059184012404206884,-0.08163312055752675,-0.9949036567948571,1.0,1.0,0.0,-0.0,-0.0,-0.0,-0.0,-0.0,-0.0,0.0,0.0,-0.0,0.0,0.0,0.0,0.0,0.0006331969052553177,-0.06628546118736267,0.11368416249752045,0.15516890585422516,0.2331029623746872,-0.002243403345346451,0.03702065348625183,0.019145140424370766,-0.02334870770573616,-0.027165647596120834,-0.026243489235639572,0.14052924513816833,0.18092170357704163,0.3242456614971161,0.002601760206744075,0.10560168325901031,0.03679862059652805,-0.00047768279910087585,0.002425204962491989,-0.20842956099659204,-0.13264010101556778,0.004786285106092691,-0.00583717692643404,-0.002602621912956238,0.11561217624694109,0.0468260170891881,0.005960516631603241,0.025210879743099213,0.002601760206744075,0.10560168325901031,0.03679862059652805,-0.00047768279910087585,0.002425204962491989,-0.20842956099659204,-0.13264010101556778,0.004786285106092691,-0.00583717692643404,-0.002602621912956238,0.11561217624694109,0.0468260170891881,0.0,0.025210879743099213,-0.003067961575771161,0.1198209437648451,0.012271846303085088,0.0015339807878858025,-0.07669903939428213,-0.20708740636456158,-0.13805827090970757,0.0015339807878858025,-0.003067961575771161,0.006135923151542766,0.1182869629769593,0.011554625063593504,-0.007499461629663182,-0.06309774307502918,left_hip_pitch,22,7.2,31,1047,0
9.722414102000002,0.0,0.0,0.014180800172453928,-0.003272492347489368,-0.007635815477475192,-0.05816220550882626,-0.0826515551967531,-0.994879831072028,1.0,1.0,0.0,-0.0,-0.0,-0.30687107727372825,0.2301533079552962,-0.0,-0.0,0.0,0.0,-0.0,0.0,0.0,-0.07671776931843206,0.0,0.027063729241490364,-0.05092791095376015,0.08312161266803741,0.10734913498163223,0.18145501613616943,-0.021570974960923195,0.053090304136276245,0.005223685875535011,-0.006050778552889824,-0.030724409967660904,-0.022825082764029503,0.14389877021312714,0.18958990275859833,0.3563782572746277,0.009209393290802836,0.10944107081741095,0.029157983139157295,-0.012432625517249107,-0.010486781597137451,-0.21326145390048623,-0.12862268835306168,0.0013059214688837528,-0.001512694638222456,-0.003492312505841255,0.11646677786484361,0.0476683983579278,0.008127566426992416,0.03324402868747711,0.009209393290802836,0.10944107081741095,0.029157983139157295,-0.012432625517249107,-0.010486781597137451,-0.21326145390048623,-0.12862268835306168,0.0013059214688837528,-0.001512694638222456,-0.003492312505841255,0.11646677786484361,0.0476683983579278,0.0,0.03324402868747711,-0.003067961575771161,0.1198209437648451,0.012271846303085088,-0.007669903939428124,-0.07056311624273937,-0.20708740636456158,-0.13805827090970757,0.0015339807878858025,-0.003067961575771161,0.006135923151542766,0.1182869629769593,0.011554625063593504,-0.009033442417548984,-0.06309774307502918,,,,,,
9.741908901000002,0.0,0.0,0.038179077387375956,-0.001090830782496456,-0.011999138607461015,-0.05815727064444676,-0.08366484548850235,-0.994795418918168,1.0,1.0,0.0,-0.0,-0.0,-0.4603066159105924,0.30687107727372825,-0.0,-0.0,0.0,0.0,-0.0,0.0,0.0,-0.30687107727372825,0.0,0.027476457878947258,-0.05081075802445412,0.07598315179347992,0.09058964252471924,0.18243595957756042,-0.03492506593465805,0.06476575136184692,0.010594410821795464,-0.00266377255320549,-0.023158282041549683,-0.02332243137061596,0.15380744636058807,0.18590237200260162,0.37063056230545044,0.00931257545016706,0.10947035904973745,0.02737336792051792,-0.016622498631477356,-0.010241545736789703,-0.21659997664391994,-0.125703826546669,0.002648602705448866,-0.0006659431383013725,-0.0016007805243134499,0.11634244071319699,0.050145567394793034,0.00720568373799324,0.0368071049451828,0.00931257545016706,0.10947035904973745,0.02737336792051792,-0.016622498631477356,-0.010241545736789703,-0.21659997664391994,-0.125703826546669,0.002648602705448866,-0.0006659431383013725,-0.0016007805243134499,0.11634244071319699,0.050145567394793034,0.0,0.0368071049451828,-0.003067961575771161,0.1198209437648451,0.012271846303085088,-0.01687378866674205,-0.06289321230331124,-0.20708740636456158,-0.13805827090970757,0.0015339807878858025,-0.003067961575771161,0.006135923151542766,0.1182869629769593,0.011554625063593504,-0.01670334635697711,-0.06309774307502918,,,,,,
9.761906318000001,0.0,0.0,0.07853981633974483,0.004363323129985824,-0.050178215994836975,-0.05814722314781199,-0.08569064463888082,-0.9946235538441524,1.0,1.0,0.07671776931843206,-0.07671776931843206,-0.0,-0.4603066159105924,0.30687107727372825,-0.0,-0.0,0.0,0.0,-0.07671776931843206,0.0,0.0,-0.4603066159105924,0.15343553863686413,0.025641312822699547,-0.04919625446200371,0.07919193804264069,0.07538367807865143,0.18752965331077576,-0.03630952164530754,0.07574349641799927,0.021900149062275887,-0.008681757375597954,-0.02614147961139679,-0.021979719400405884,0.14927905797958374,0.17448030412197113,0.37449973821640015,0.008853789186105132,0.10987398494035006,0.028175564482808113,-0.02042398974299431,-0.00896812230348587,-0.21694609057158232,-0.12295939028263092,0.005475037265568972,-0.0021704393438994884,-0.0023465799167752266,0.11667811870574951,0.04901347029954195,0.004350166767835617,0.03777439892292023,0.008853789186105132,0.10987398494035006,0.028175564482808113,-0.02042398974299431,-0.00896812230348587,-0.21694609057158232,-0.12295939028263092,0.005475037265568972,-0.0021704393438994884,-0.0023465799167752266,0.11667811870574951,0.04901347029954195,0.0,0.03777439892292023,-0.0015339807878858025,0.1182869629769593,0.012271846303085088,-0.026077673394055978,-0.05675728915176892,-0.20708740636456158,-0.13805827090970757,0.0015339807878858025,-0.003067961575771161,0.004601942363656963,0.1182869629769593,0.013088605851479307,-0.024373250296405233,-0.058495800711372656,,,,,,
9.78242972400001,0.0,0.0,0.12326387842209953,0.006544984694978736,-0.07417649320975901,-0.05813693893820361,-0.08771538155588614,-0.99444763973243,1.0,1.0,0.0,-0.0,-0.0,-0.4603066159105924,0.30687107727372825,-0.0,0.07671776931843206,0.0,0.0,-0.0,0.0,0.15343553863686413,-0.3835888465921603,0.2301533079552962,0.020932083949446678,-0.04766986146569252,0.08829016983509064,0.053289733827114105,0.17927199602127075,-0.039800986647605896,0.08343930542469025,0.029076172038912773,-0.0117269242182374,-0.028135990723967552,-0.02122449316084385,0.14829686284065247,0.17161986231803894,0.3743602931499481,0.007676481967791915,0.11025558318942785,0.0304501224309206,-0.02594747580587864,-0.011032536625862122,-0.2178189568221569,-0.12103543803095818,0.007269043009728193,-0.00293173105455935,-0.0028452076949179173,0.11686692526564002,0.04876792151480913,0.0036350563168525696,0.03773953765630722,0.007676481967791915,0.11025558318942785,0.0304501224309206,-0.02594747580587864,-0.011032536625862122,-0.2178189568221569,-0.12103543803095818,0.007269043009728193,-0.00293173105455935,-0.0028452076949179173,0.11686692526564002,0.04876792151480913,0.0,0.03773953765630722,-0.0015339807878858025,0.1182869629769593,0.01380582709097089,-0.0337475773334841,-0.05062136600022615,-0.20708740636456158,-0.1365242901218222,0.0015339807878858025,-0.003067961575771161,0.004601942363656963,0.1182869629769593,0.01462258663936511,-0.03204315423583336,-0.05389385834771569,,,,,,
9.803383061000005,0.0,0.0,0.12326387842209953,0.006544984694978736,-0.07417649320975901,-0.05813693893820361,-0.08771538155588614,-0.99444763973243,1.0,1.0,0.0,-0.07671776931843206,0.2301533079552962,-0.30687107727372825,0.30687107727372825,-0.0,0.15343553863686413,0.0,0.0,-0.07671776931843206,0.0,0.15343553863686413,-0.15343553863686413,0.15343553863686413,0.01255044899880886,-0.04899967834353447,0.0869610458612442,0.032586656510829926,0.16917724907398224,-0.03918895125389099,0.08305853605270386,0.01883917860686779,-0.009525684639811516,-0.031010016798973083,-0.016457846388220787,0.16330283880233765,0.17210720479488373,0.3697549104690552,0.005581073230132461,0.10992312896996737,0.030117841437458992,-0.031123245134949684,-0.01355622336268425,-0.21766594797372818,-0.12113063037395477,0.0047097946517169476,-0.002381421159952879,-0.0035637142136693,0.11805858695879579,0.05251941550523043,0.0037568919360637665,0.036588191986083984,0.005581073230132461,0.10992312896996737,0.030117841437458992,-0.031123245134949684,-0.01355622336268425,-0.21766594797372818,-0.12113063037395477,0.0047097946517169476,-0.002381421159952879,-0.0035637142136693,0.11805858695879579,0.05251941550523043,0.0,0.036588191986083984,-0.0015339807878858025,0.11675298218907394,0.019941750242513212,-0.03988350048502687,-0.04448544284868339,-0.20862138715244738,-0.13192234775816525,0.0015339807878858025,-0.003067961575771161,0.0015339807878858025,0.1182869629769593,0.01769054821513627,-0.03664509659949032,-0.05082589677194409,right_hip_pitch,12,7.1,32,1145,3
9.820787776000003,0.0,0.0,0.04363323129985824,-0.002181661564992912,-0.032724923474893676,-0.05818004810295418,-0.0908425312484723,-0.9941643307417081,1.0,1.0,0.07671776931843206,-0.0,0.2301533079552962,-0.0,0.30687107727372825,-0.2301533079552962,0.2301533079552962,0.0,0.0,-0.07671776931843206,0.0,0.15343553863686413,-0.2301533079552962,0.30687107727372825,0.01955926977097988,-0.05146053060889244,0.08172214031219482,0.043690212070941925,0.1726135015487671,-0.03323869779706001,0.09339036047458649,0.0029884129762649536,-0.00628124363720417,-0.03394393250346184,-0.021894706413149834,0.16195538640022278,0.15579237043857574,0.3587978482246399,0.007333278423175216,0.10930791590362787,0.028808115050196648,-0.028347356244921684,-0.012697160243988037,-0.21617838460952044,-0.11854767426848412,0.0007471032440662384,-0.0015703109093010426,-0.004297193139791489,0.11669937195256352,0.05218255240470171,-0.00032181665301322937,0.033848926424980164,0.007333278423175216,0.10930791590362787,0.028808115050196648,-0.028347356244921684,-0.012697160243988037,-0.21617838460952044,-0.11854767426848412,0.0007471032440662384,-0.0015703109093010426,-0.004297193139791489,0.11669937195256352,0.05218255240470171,-0.00032181665301322937,0.033848926424980164,0.0,0.11675298218907394,0.021475731030399015,-0.03988350048502687,-0.038349519697141066,-0.21322332951610434,-0.12732040539450828,0.0015339807878858025,-0.003067961575771161,-0.0,0.1182869629769593,0.022292490578793234,-0.03971305817526148,-0.04315599283251596,,,,,,
9.840925751,0.0,0.0,-0.015271630954950384,0.020725784867432664,-0.07526732399225546,-0.05818004810295418,-0.0908425312484723,-0.9941643307417081,1.0,1.0,0.07671776931843206,-0.0,-0.0,-0.0,0.2301533079552962,-0.2301533079552962,0.15343553863686413,0.0,0.0,-0.07671776931843206,0.0,0.3835888465921603,0.0,0.3835888465921603,0.029288919642567635,-0.04851267859339714,0.08354617655277252,0.059930115938186646,0.18471799790859222,-0.038116954267024994,0.10288447141647339,0.0019220765680074692,-0.008124496787786484,-0.036197513341903687,-0.02503776177763939,0.16379863023757935,0.15124662220478058,0.3437313437461853,0.009765690891072154,0.1100448789075017,0.029264124110341072,-0.024287380278110504,-0.009671036154031754,-0.21739794872701168,-0.11617414653301239,0.0004805191420018673,-0.002031124196946621,-0.004860588349401951,0.11591360811144114,0.05264336336404085,-0.0014582537114620209,0.030082300305366516,0.009765690891072154,0.1100448789075017,0.029264124110341072,-0.024287380278110504,-0.009671036154031754,-0.21739794872701168,-0.11617414653301239,0.0004805191420018673,-0.002031124196946621,-0.004860588349401951,0.11591360811144114,0.05264336336404085,-0.0014582537114620209,0.030082300305366516,0.003067961575771161,0.11675298218907394,0.024543692606170175,-0.03988350048502687,-0.0337475773334841,-0.21782527187976086,-0.12578642460662248,0.0015339807878858025,-0.003067961575771161,-0.0,0.1182869629769593,0.029962394518221358,-0.03971305817526148,-0.033952108105202036,,,,,,
9.860893149000006,0.0,0.0,-0.09926560120717749,0.004363323129985824,-0.013089969389957472,-0.05814211060855197,-0.08670314739871783,-0.9945361025147046,1.0,1.0,0.07671776931843206,-0.07671776931843206,0.2301533079552962,0.15343553863686413,0.30687107727372825,-0.2301533079552962,-0.0,0.0,0.0,-0.0,0.0,0.30687107727372825,0.07671776931843206,0.4603066159105924,0.02520030550658703,-0.05627739802002907,0.05060853436589241,0.07531874626874924,0.20581233501434326,-0.044607967138290405,0.09964956343173981,-0.029101897031068802,0.002575637772679329,-0.0334789976477623,-0.027886107563972473,0.19627997279167175,0.147918701171875,0.3493040204048157,0.008743537357077003,0.10810369905084372,0.021029713563621044,-0.020440222695469856,-0.004397451877593994,-0.21902070194482803,-0.11698287352919579,-0.0072754742577672005,0.0006439094431698322,-0.004180959425866604,0.11520152166485786,0.06076369900256395,-0.0022902339696884155,0.03147546947002411,0.008743537357077003,0.10810369905084372,0.021029713563621044,-0.020440222695469856,-0.004397451877593994,-0.21902070194482803,-0.11698287352919579,-0.0072754742577672005,0.0006439094431698322,-0.004180959425866604,0.11520152166485786,0.06076369900256395,-0.0022902339696884155,0.03147546947002411,0.003067961575771161,0.11521900140118814,0.02914563496982714,-0.03681553890925526,-0.027611654181941336,-0.22089323345553247,-0.12578642460662248,0.0015339807878858025,-0.003067961575771161,-0.0015339807878858025,0.1182869629769593,0.036098317669764124,-0.03817907738737612,-0.024748223377888554,,,,,,
9.880962808000007,0.0,0.0,-0.2901609881440573,-0.018544123302439753,-0.031634092692397225,-0.05815227650869724,-0.08467787631968195,-0.9947099929119264,1.0,1.0,0.0,-0.07671776931843206,0.30687107727372825,0.07671776931843206,0.2301533079552962,-0.07671776931843206,-0.0,0.0,0.0,-0.07671776931843206,0.0,0.2301533079552962,0.15343553863686413,0.4603066159105924,0.03728155046701431,-0.04788713529706001,0.06449760496616364,0.12859618663787842,0.2168794721364975,-0.030044013634324074,0.10132715106010437,-0.043823935091495514,0.011332858353853226,-0.04110486060380936,-0.03003496304154396,0.21344777941703796,0.12696495652198792,0.32016319036483765,0.011763848597183824,0.11020126473158598,0.02450198121368885,-0.007120862603187561,-0.0016306675970554352,-0.21537971356883645,-0.11656347662210464,-0.010955983772873878,0.0028332145884633064,-0.006087425164878368,0.11466430779546499,0.0650556506589055,-0.007528670132160187,0.024190261960029602,0.011763848597183824,0.11020126473158598,0.02450198121368885,-0.007120862603187561,-0.0016306675970554352,-0.21537971356883645,-0.11656347662210464,-0.010955983772873878,0.0028332145884633064,-0.006087425164878368,0.11466430779546499,0.0650556506589055,-0.007528670132160187,0.024190261960029602,0.003067961575771161,0.11368502061330234,0.035281558121369905,-0.0337475773334841,-0.023009711818284817,-0.22242721424341783,-0.12425244381873712,0.0015339807878858025,-0.003067961575771161,-0.0015339807878858025,0.1182869629769593,0.039166279245535285,-0.03511111581160452,-0.015544338650574627,,,,,,
9.902153833,0.0,0.0,-0.346884188833873,-0.026179938779914945,-0.05235987755982989,-0.058136001531690455,-0.07547480900605427,-0.9954515349987697,1.0,1.0,0.0,-0.0,0.15343553863686413,0.15343553863686413,0.2301533079552962,-0.0,0.15343553863686413,0.0,-0.07671776931843206,-0.0,0.0,0.07671776931843206,0.07671776931843206,0.4603066159105924,0.0324985608458519,-0.03323174640536308,0.07241277396678925,0.15132257342338562,0.22262795269489288,-0.001412220299243927,0.1272936463356018,-0.05915196239948273,0.0014563370496034622,-0.05039859935641289,-0.025453124195337296,0.20666857063770294,0.08770262449979782,0.2828020453453064,0.01056810119189322,0.11386511195451021,0.026480773463845253,-0.0014392659068107605,-0.00019354745745658875,-0.20822176523506641,-0.11007185280323029,-0.014787990599870682,0.00036408426240086555,-0.008410859853029251,0.11580976750701666,0.06336084846407175,-0.01734425313770771,0.01484997570514679,0.01056810119189322,0.11386511195451021,0.026480773463845253,-0.0014392659068107605,-0.00019354745745658875,-0.20822176523506641,-0.11007185280323029,-0.014787990599870682,0.00036408426240086555,-0.008410859853029251,0.11580976750701666,0.06336084846407175,-0.01734425313770771,0.01484997570514679,0.003067961575771161,0.11368502061330234,0.0337475773334841,-0.03067961575771294,-0.019941750242513212,-0.22242721424341783,-0.12118448224296552,0.0015339807878858025,-0.003067961575771161,-0.0015339807878858025,0.1182869629769593,0.04070026003342109,-0.03357713502371916,-0.0063404539232607,left_knee,23,7.0,30,83,3
9.921155921999997,0.0,0.0,-0.16689710972195776,-0.04690572364734761,-0.050178215994836975,-0.059165779820514026,-0.07242707529752579,-0.9956172604279602,1.0,1.0,0.0,-0.0,-0.07671776931843206,0.2301533079552962,0.07671776931843206,-0.0,0.15343553863686413,-0.07671776931843206,-0.07671776931843206,-0.0,0.0,0.0,0.0,0.4603066159105924,0.018734904006123543,-0.02614545449614525,0.08681696653366089,0.12346582859754562,0.21337155997753143,0.014610983431339264,0.15893033146858215,-0.058025993406772614,-0.024144820868968964,-0.04944640398025513,-0.028422441333532333,0.14728429913520813,0.07965736091136932,0.2786726951599121,0.007127186981961131,0.11563668493181467,0.030081821605563164,-0.00840345211327076,-0.0025076456367969513,-0.20421596430242062,-0.1021626815199852,-0.014506498351693153,-0.006036205217242241,-0.008172811008989811,0.1150674382224679,0.04851478058844805,-0.019355569034814835,0.013817638158798218,0.007127186981961131,0.11563668493181467,0.030081821605563164,-0.00840345211327076,-0.0025076456367969513,-0.20421596430242062,-0.1021626815199852,-0.014506498351693153,-0.006036205217242241,-0.008172811008989811,0.1150674382224679,0.04851478058844805,-0.019355569034814835,0.013817638158798218,0.003067961575771161,0.11368502061330234,0.0322135965455983,-0.027611654181941336,-0.01687378866674205,-0.22242721424341783,-0.11811652066719436,0.0,-0.006135923151542766,-0.0015339807878858025,0.11675298218907394,0.04070026003342109,-0.03357713502371916,0.0013294500161674244,,,,,,
9.941136487000009,0.0,0.0,-0.0916297857297023,-0.07526732399225546,-0.10362892433716332,-0.06018663104216707,-0.07140786733816433,-0.9956296931721197,1.0,1.0,0.0,-0.0,-0.15343553863686413,0.15343553863686413,0.15343553863686413,-0.0,0.30687107727372825,0.0,-0.07671776931843206,-0.0,-0.15343553863686413,0.0,0.07671776931843206,0.30687107727372825,0.007705153897404671,-0.032297249883413315,0.0979979932308197,0.10431542992591858,0.22260724008083344,0.021237805485725403,0.17979919910430908,-0.05484374612569809,-0.03158729150891304,-0.05039307475090027,-0.02136733941733837,0.12790563702583313,0.08221517503261566,0.2828192710876465,0.004369749454781413,0.11409873608499765,0.03287707827985287,-0.01319105178117752,-0.0001987256109714508,-0.20255925878882408,-0.09694546461105347,-0.013710936531424522,-0.00789682287722826,-0.008409478701651096,0.11683121370151639,0.0436701150611043,-0.01871611550450325,0.014854282140731812,0.004369749454781413,0.11409873608499765,0.03287707827985287,-0.01319105178117752,-0.0001987256109714508,-0.20255925878882408,-0.09694546461105347,-0.013710936531424522,-0.00789682287722826,-0.008409478701651096,0.11683121370151639,0.0436701150611043,-0.01871611550450325,0.014854282140731812,0.003067961575771161,0.11368502061330234,0.03067961575771294,-0.023009711818284817,-0.015339807878856249,-0.22242721424341783,-0.11198059751565159,0.0,-0.007669903939428124,-0.0015339807878858025,0.11521900140118814,0.042234240821306446,-0.03204315423583336,0.005931392379824388,,,,,,
9.961276386999998,0.0,0.0,-0.17671458676442586,-0.0818123086872342,-0.1908953869368798,-0.06121174398755793,-0.06937330985256566,-0.9957110355309424,1.0,1.0,0.0,-0.0,-0.0,0.30687107727372825,0.07671776931843206,0.07671776931843206,0.2301533079552962,-0.15343553863686413,0.0,-0.0,0.0,0.2301533079552962,0.0,0.2301533079552962,0.010119171813130379,-0.02181747928261757,0.09487728774547577,0.10788147151470184,0.22398528456687927,0.038920074701309204,0.20846620202064514,-0.06904098391532898,-0.032866429537534714,-0.055998995900154114,-0.02579023689031601,0.12961488962173462,0.07096803188323975,0.2638736069202423,0.00497325393371284,0.11671867873519659,0.032096901908516884,-0.012299541383981705,0.00014578551054000854,-0.19813869148492813,-0.08977871388196945,-0.017260245978832245,-0.008216607384383678,-0.009810958988964558,0.11572548933327198,0.04409742821007967,-0.02152790129184723,0.010117866098880768,0.00497325393371284,0.11671867873519659,0.032096901908516884,-0.012299541383981705,0.00014578551054000854,-0.19813869148492813,-0.08977871388196945,-0.017260245978832245,-0.008216607384383678,-0.009810958988964558,0.11572548933327198,0.04409742821007967,-0.02152790129184723,0.010117866098880768,0.003067961575771161,0.11368502061330234,0.02914563496982714,-0.01687378866674205,-0.01380582709097089,-0.22089323345553247,-0.10737865515199507,-0.004601942363656963,-0.007669903939428124,-0.0015339807878858025,0.11521900140118814,0.04683618318496341,-0.03204315423583336,0.010533334743481351,,,,,,
9.981260526,0.0,0.0,-0.2694352032766246,-0.04690572364734761,-0.14289883250703572,-0.06224924077948957,-0.0642901994935712,-0.9959878524718331,1.0,1.0,0.0,-0.0,-0.07671776931843206,0.2301533079552962,-0.0,-0.0,0.2301533079552962,-0.15343553863686413,0.15343553863686413,-0.0,-0.07671776931843206,0.15343553863686413,0.0,0.07671776931843206,0.019763367250561714,-0.015645459294319153,0.09886859357357025,0.13284771144390106,0.2187957465648651,0.052329644560813904,0.2155626118183136,-0.09138847887516022,-0.021180713549256325,-0.055595796555280685,-0.027969107031822205,0.13330842554569244,0.05905747413635254,0.2566448450088501,0.007384302793070674,0.1182616837322712,0.033094728365540504,-0.0060579814016819,-0.0011515989899635315,-0.19478629902005196,-0.08800461143255234,-0.022847119718790054,-0.005295178387314081,-0.0097101591527462,0.11518077179789543,0.045020812191069126,-0.02450554072856903,0.008310675621032715,0.007384302793070674,0.1182616837322712,0.033094728365540504,-0.0060579814016819,-0.0011515989899635315,-0.19478629902005196,-0.08800461143255234,-0.022847119718790054,-0.005295178387314081,-0.0097101591527462,0.11518077179789543,0.045020812191069126,-0.02450554072856903,0.008310675621032715,0.003067961575771161,0.11368502061330234,0.02914563496982714,-0.012271846303085088,-0.01380582709097089,-0.22089323345553247,-0.10277671278833811,-0.007669903939428124,-0.004601942363656963,-0.0015339807878858025,0.11368502061330234,0.04837016397284921,-0.03204315423583336,0.010533334743481351,,,,,,
10.002358440000009,0.0,0.0,-0.3097959422289935,0.001090830782496456,-0.037088246604879506,-0.062220090020091365,-0.05508007968991695,-0.9965414417972009,1.0,1.0,0.07671776931843206,-0.0,-0.0,0.15343553863686413,-0.0,0.07671776931843206,0.2301533079552962,-0.15343553863686413,0.07671776931843206,-0.0,0.07671776931843206,0.07671776931843206,0.0,0.0,0.022765150293707848,-0.013289999216794968,0.0902414619922638,0.14535550773143768,0.21010661125183105,0.07435353100299835,0.23521125316619873,-0.09144426137208939,-0.01099960133433342,-0.06422029435634613,-0.022602368146181107,0.1419874131679535,0.04443597048521042,0.25804513692855835,0.008134748553857207,0.11885054875165224,0.03093794547021389,-0.0029310323297977448,-0.003323882818222046,-0.18928032740950584,-0.08309245109558105,-0.022861065343022346,-0.002749900333583355,-0.011866283603012562,0.1165224565193057,0.04719055909663439,-0.02816091664135456,0.008660748600959778,0.008134748553857207,0.11885054875165224,0.03093794547021389,-0.0029310323297977448,-0.003323882818222046,-0.18928032740950584,-0.08309245109558105,-0.022861065343022346,-0.002749900333583355,-0.011866283603012562,0.1165224565193057,0.04719055909663439,-0.02816091664135456,0.008660748600959778,0.004601942363656963,0.11368502061330234,0.03067961575771294,-0.010737865515199285,-0.01380582709097089,-0.21782527187976086,-0.09817477042468115,-0.010737865515199285,-0.003067961575771161,-0.003067961575771161,0.11521900140118814,0.04990414476073457,-0.03204315423583336,0.010533334743481351,right_knee,13,7.2,30,1062,1
10.02149884500001,0.0,0.0,-0.29343348049154666,0.06326818538479445,0.019634954084936207,-0.070379016493265,-0.057476196802833085,-0.9958630833796998,1.0,1.0,0.0,-0.07671776931843206,0.07671776931843206,-0.0,-0.0,0.2301533079552962,0.2301533079552962,-0.15343553863686413,0.07671776931843206,-0.07671776931843206,0.07671776931843206,0.0,0.0,-0.07671776931843206,0.01724308915436268,-0.010318581014871597,0.08574897050857544,0.14101332426071167,0.19645477831363678,0.08747094124555588,0.24662145972251892,-0.09412980079650879,-0.005732620134949684,-0.06253193318843842,-0.01876370795071125,0.14155660569667816,0.0368073433637619,0.24973082542419434,0.006754233269020915,0.11959340330213308,0.0298148225992918,-0.004016578197479248,-0.006736841052770615,-0.18600097484886646,-0.08023989945650101,-0.023532450199127197,-0.001433155033737421,-0.011444193311035633,0.11748212156817317,0.047082857228815556,-0.03006807342171669,0.006582170724868774,0.006754233269020915,0.11959340330213308,0.0298148225992918,-0.004016578197479248,-0.006736841052770615,-0.18600097484886646,-0.08023989945650101,-0.023532450199127197,-0.001433155033737421,-0.011444193311035633,0.11748212156817317,0.047082857228815556,-0.03006807342171669,0.006582170724868774,0.004601942363656963,0.11215103982541698,0.03067961575771294,-0.010737865515199285,-0.01380582709097089,-0.21322332951610434,-0.09357282806102418,-0.012271846303085088,-0.0015339807878858025,-0.004601942363656963,0.11675298218907394,0.04990414476073457,-0.03204315423583336,0.008999353955595549,,,,,,
10.041748413999997,0.0,0.0,-0.21271200258680892,0.04799655442984406,-0.044724062082354694,-0.06021267151650019,-0.046945472707779816,-0.9970810181630625,1.0,1.0,0.0,-0.0,-0.0,-0.0,-0.0,0.30687107727372825,0.2301533079552962,-0.15343553863686413,0.0,-0.15343553863686413,0.0,0.0,0.0,0.0,0.012776980176568031,-0.008752498775720596,0.0866428017616272,0.13357791304588318,0.18881209194660187,0.11462289839982986,0.2649451196193695,-0.11683541536331177,-0.01024644449353218,-0.06200593709945679,-0.016737237572669983,0.11492307484149933,0.024248778820037842,0.24419258534908295,0.005637706024572253,0.11998492386192083,0.03003828041255474,-0.005875431001186371,-0.008647512644529343,-0.17921298556029797,-0.07565898448228836,-0.029208853840827942,-0.002561611123383045,-0.011312694288790226,0.11798873916268349,0.04042447451502085,-0.033207714557647705,0.005197610706090927,0.005637706024572253,0.11998492386192083,0.03003828041255474,-0.005875431001186371,-0.008647512644529343,-0.17921298556029797,-0.07565898448228836,-0.029208853840827942,-0.002561611123383045,-0.011312694288790226,0.11798873916268349,0.04042447451502085,-0.033207714557647705,0.005197610706090927,0.004601942363656963,0.11215103982541698,0.03067961575771294,-0.010737865515199285,-0.01380582709097089,-0.20708740636456158,-0.08897088569736722,-0.015339807878856249,-0.0015339807878858025,-0.007669903939428124,0.11675298218907394,0.04837016397284921,-0.03204315423583336,0.00746537316771019,,,,,,
10.061583550999998,0.0,0.0,-0.17889624832941878,-0.016362461737446838,-0.11453723216212788,-0.061237945258388986,-0.04388719410184544,-0.9971578752907673,1.0,1.0,0.0,-0.0,-0.0,-0.0,-0.07671776931843206,0.30687107727372825,0.30687107727372825,-0.07671776931843206,0.0,-0.07671776931843206,0.0,-0.15343553863686413,0.0,-0.15343553863686413,0.016092346981167793,-0.017047982662916183,0.0923500508069992,0.12792107462882996,0.1905856430530548,0.12477012723684311,0.27618807554244995,-0.13146206736564636,-0.008128343150019646,-0.06639183312654495,-0.013913797214627266,0.10108041763305664,0.031422629952430725,0.2314150333404541,0.006466547725722194,0.11791105289012194,0.03146509267389774,-0.0072896406054496765,-0.008204124867916107,-0.17667617835104465,-0.07284824550151825,-0.03286551684141159,-0.0020320857875049114,-0.012409168295562267,0.11869459925219417,0.036963810212910175,-0.031414251774549484,0.002003222703933716,0.006466547725722194,0.11791105289012194,0.03146509267389774,-0.0072896406054496765,-0.008204124867916107,-0.17667617835104465,-0.07284824550151825,-0.03286551684141159,-0.0020320857875049114,-0.012409168295562267,0.11869459925219417,0.036963810212910175,-0.031414251774549484,0.002003222703933716,0.006135923151542766,0.11215103982541698,0.02914563496982714,-0.010737865515199285,-0.015339807878856249,-0.19941750242513345,-0.08283496254582445,-0.018407769454627854,-0.0015339807878858025,-0.009203884727313927,0.11675298218907394,0.04683618318496341,-0.03204315423583336,0.004397411591939029,,,,,,
10.081586838000007,0.0,0.0,-0.13199052468207118,0.019634954084936207,-0.08944812416470939,-0.060223712093453924,-0.04287111708347568,-0.9972638426322794,1.0,1.0,0.07671776931843206,0.07671776931843206,-0.07671776931843206,-0.0,-0.0,0.30687107727372825,0.2301533079552962,-0.07671776931843206,0.0,-0.07671776931843206,0.0,-0.07671776931843206,0.0,-0.07671776931843206,0.011030448600649834,-0.01052161306142807,0.0904671847820282,0.11469171941280365,0.1890382468700409,0.14664533734321594,0.2884267270565033,-0.1220293864607811,-0.00928991474211216,-0.06388449668884277,-0.01366620883345604,0.08752824366092682,0.03230993449687958,0.21870699524879456,0.005201073130592704,0.11954264529049397,0.03099437616765499,-0.010596979409456253,-0.008590973913669586,-0.17120737582445145,-0.06978858262300491,-0.030507346615195274,-0.00232247868552804,-0.011782334186136723,0.11875649634748697,0.03357576671987772,-0.03119242563843727,-0.0011737868189811707,0.005201073130592704,0.11954264529049397,0.03099437616765499,-0.010596979409456253,-0.008590973913669586,-0.17120737582445145,-0.06978858262300491,-0.030507346615195274,-0.00232247868552804,-0.011782334186136723,0.11875649634748697,0.03357576671987772,-0.03119242563843727,-0.0011737868189811707,0.006135923151542766,0.11521900140118814,0.02914563496982714,-0.010737865515199285,-0.015339807878856249,-0.1932815792735907,-0.07823302018216749,-0.019941750242513212,-0.0015339807878858025,-0.010737865515199285,0.11675298218907394,0.04530220239707761,-0.03204315423583336,0.002863430804053227,,,,,,
10.102683029000005,0.0,0.0,-0.2007128639793479,0.06872233929727672,-0.004363323129985824,-0.059160762658139396,-0.036720473374017557,-0.9975728599941436,1.0,1.0,0.0,0.15343553863686413,-0.0,-0.0,-0.0,0.3835888465921603,0.2301533079552962,-0.15343553863686413,0.0,-0.07671776931843206,0.0,0.0,0.0,-0.15343553863686413,0.011479644104838371,-0.005611378699541092,0.08426420390605927,0.11410662531852722,0.17442303895950317,0.1616894006729126,0.29694172739982605,-0.13171999156475067,-0.00507749617099762,-0.06282852590084076,-0.015163019299507141,0.08897654712200165,0.031345710158348083,0.2078348845243454,0.005313372006639838,0.12077020388096571,0.029443630948662758,-0.01074325293302536,-0.012244775891304016,-0.16744635999202728,-0.06765983253717422,-0.03292999789118767,-0.001269374042749405,-0.011518341489136219,0.1183822937309742,0.03393784258514643,-0.031433481723070145,-0.00389181450009346,0.005313372006639838,0.12077020388096571,0.029443630948662758,-0.01074325293302536,-0.012244775891304016,-0.16744635999202728,-0.06765983253717422,-0.03292999789118767,-0.001269374042749405,-0.011518341489136219,0.1183822937309742,0.03393784258514643,-0.031433481723070145,-0.00389181450009346,0.006135923151542766,0.11675298218907394,0.02914563496982714,-0.010737865515199285,-0.015339807878856249,-0.18714565612204836,-0.07363107781851097,-0.023009711818284817,-0.0015339807878858025,-0.010737865515199285,0.11675298218907394,0.04530220239707761,-0.03204315423583336,0.0013294500161674244,left_ankle,24,7.3,30,46,2
10.121703007000008,0.0,0.0,-0.3196134192714616,0.05781403147231216,0.07526732399225546,-0.05815621117479839,-0.030608532197262305,-0.9978381496307511,1.0,1.0,0.0,-0.0,0.07671776931843206,-0.0,-0.0,0.30687107727372825,0.2301533079552962,-0.15343553863686413,0.0,-0.0,0.0,-0.07671776931843206,0.0,-0.07671776931843206,0.01919418014585972,-0.0030533447861671448,0.0808432549238205,0.12402266263961792,0.14610308408737183,0.1932704746723175,0.3033670485019684,-0.14742158353328705,0.009507879614830017,-0.05990283563733101,-0.012197606265544891,0.08877915143966675,0.03616774082183838,0.21003398299217224,0.007242006016895175,0.1214097123593092,0.028588393703103065,-0.008264243602752686,-0.019324764609336853,-0.15955109149217606,-0.06605350226163864,-0.03685539588332176,0.0023769699037075043,-0.010786918923258781,0.11912364698946476,0.0338884936645627,-0.03022797405719757,-0.0033420398831367493,0.007242006016895175,0.1214097123593092,0.028588393703103065,-0.008264243602752686,-0.019324764609336853,-0.15955109149217606,-0.06605350226163864,-0.03685539588332176,0.0023769699037075043,-0.010786918923258781,0.11912364698946476,0.0338884936645627,-0.03022797405719757,-0.0033420398831367493,0.006135923151542766,0.11675298218907394,0.0322135965455983,-0.010737865515199285,-0.015339807878856249,-0.17640779060684864,-0.06902913545485401,-0.026077673394055978,-0.0015339807878858025,-0.010737865515199285,0.11675298218907394,0.042234240821306446,-0.03204315423583336,-0.0017385115596037365,,,,,,
10.141785666000004,0.0,0.0,-0.33815754257390135,0.04581489286485115,0.1461713248545251,-0.05714892700971955,-0.024492397289879803,-0.9980651895626019,1.0,1.0,0.0,-0.0,0.15343553863686413,-0.0,0.07671776931843206,0.5370243852290244,0.15343553863686413,-0.2301533079552962,0.0,-0.0,0.0,-0.15343553863686413,0.07671776931843206,-0.07671776931843206,0.020288007333874702,-0.0006626658141613007,0.07342685759067535,0.13740554451942444,0.1355886161327362,0.21515300869941711,0.30886954069137573,-0.15658897161483765,0.01584618166089058,-0.06443749368190765,-0.011347722262144089,0.09652455151081085,0.04009638726711273,0.21625784039497375,0.007515462813898921,0.12200738210231066,0.02673429436981678,-0.004918523132801056,-0.021953381597995758,-0.15408045798540115,-0.0646778792142868,-0.03914724290370941,0.003961545415222645,-0.011920583434402943,0.11933611799031496,0.03582484368234873,-0.029245812445878983,-0.0017860755324363708,0.007515462813898921,0.12200738210231066,0.02673429436981678,-0.004918523132801056,-0.021953381597995758,-0.15408045798540115,-0.0646778792142868,-0.03914724290370941,0.003961545415222645,-0.011920583434402943,0.11933611799031496,0.03582484368234873,-0.029245812445878983,-0.0017860755324363708,0.006135923151542766,0.11675298218907394,0.0337475773334841,-0.010737865515199285,-0.01380582709097089,-0.1687378866674205,-0.0659611738790824,-0.03067961575771294,-0.0015339807878858025,-0.009203884727313927,0.11675298218907394,0.04070026003342109,-0.030509173447947555,-0.004806473135374897,,,,,,
10.161923565999999,0.0,0.0,-0.22471114119426994,0.09817477042468103,0.1734420944169365,-0.05512038097881216,-0.01939420812217465,-0.9982913443940423,1.0,1.0,0.0,-0.0,-0.0,0.07671776931843206,0.07671776931843206,0.30687107727372825,0.15343553863686413,-0.07671776931843206,-0.07671776931843206,0.07671776931843206,0.0,-0.07671776931843206,0.0,-0.15343553863686413,0.016970517113804817,0.005808964371681213,0.07478764653205872,0.12190549820661545,0.11443037539720535,0.23983100056648254,0.31956884264945984,-0.17142240703105927,0.010554932057857513,-0.04728132113814354,-0.012583142146468163,0.071653813123703,0.028049111366271973,0.19439567625522614,0.00668609025888145,0.12362528964877129,0.02707449160516262,-0.008793534711003304,-0.02724294178187847,-0.1479109600186348,-0.06200305372476578,-0.042855601757764816,0.0026387330144643784,-0.007631540298461914,0.11902726301923394,0.029607159085571766,-0.03225763142108917,-0.007251616567373276,0.00668609025888145,0.12362528964877129,0.02707449160516262,-0.008793534711003304,-0.02724294178187847,-0.1479109600186348,-0.06200305372476578,-0.042855601757764816,0.0026387330144643784,-0.007631540298461914,0.11902726301923394,0.029607159085571766,-0.03225763142108917,-0.007251616567373276,0.006135923151542766,0.11675298218907394,0.0337475773334841,-0.009203884727313927,-0.012271846303085088,-0.16260196351587775,-0.06289321230331124,-0.0322135965455983,-0.003067961575771161,-0.009203884727313927,0.11675298218907394,0.039166279245535285,-0.030509173447947555,-0.004806473135374897,,,,,,
10.18190739100001,0.0,0.0,-0.28579766501407144,0.05999569303730508,0.07090400086226964,-0.054050519224548586,-0.016317137879109007,-0.9984048739779824,1.0,1.0,0.0,0.07671776931843206,-0.0,0.2301533079552962,-0.0,0.30687107727372825,0.2301533079552962,-0.07671776931843206,-0.2301533079552962,-0.0,-0.15343553863686413,0.0,0.07671776931843206,0.0,0.015517877414822578,0.007201548665761948,0.07545927166938782,0.13316082954406738,0.12245960533618927,0.252285897731781,0.3218725621700287,-0.16190534830093384,0.00799417495727539,-0.05831515043973923,-0.014577740803360939,0.07620085030794144,0.04204533249139786,0.2069239318370819,0.00632293033413589,0.12397343572229147,0.027242397889494896,-0.00597970187664032,-0.025235634297132492,-0.14479723572731018,-0.061427123844623566,-0.04047633707523346,0.0019985437393188477,-0.010389997623860836,0.11852861335501075,0.030743918381631374,-0.0287585761398077,-0.004119552671909332,0.00632293033413589,0.12397343572229147,0.027242397889494896,-0.00597970187664032,-0.025235634297132492,-0.14479723572731018,-0.061427123844623566,-0.04047633707523346,0.0019985437393188477,-0.010389997623860836,0.11852861335501075,0.030743918381631374,-0.0287585761398077,-0.004119552671909332,0.006135923151542766,0.1182869629769593,0.0337475773334841,-0.004601942363656963,-0.012271846303085088,-0.15646604036433542,-0.05982525072754008,-0.0337475773334841,-0.007669903939428124,-0.009203884727313927,0.11368502061330234,0.039166279245535285,-0.028975192660062196,-0.004806473135374897,,,,,,
10.203105528000009,0.0,0.0,-0.29343348049154666,-0.016362461737446838,0.039269908169872414,-0.055072774694618534,-0.008158929584387931,-0.998449007889473,1.0,1.0,0.0,0.07671776931843206,-0.0,-0.0,0.07671776931843206,0.30687107727372825,0.07671776931843206,-0.15343553863686413,-0.07671776931843206,-0.0,0.0,0.0,0.07671776931843206,0.0,0.02039763145148754,0.007249891757965088,0.08039213716983795,0.13256129622459412,0.11917413771152496,0.2616513967514038,0.3328368365764618,-0.17635536193847656,4.3295323848724365e-05,-0.060661401599645615,-0.017482314258813858,0.0712875947356224,0.05173595994710922,0.1942489892244339,0.007542868843302131,0.12398552149534225,0.02847561426460743,-0.0061295852065086365,-0.02605700120329857,-0.14245586097240448,-0.05868605524301529,-0.04408884048461914,1.0823830962181091e-05,-0.010976560413837433,0.11780246999114752,0.029515604488551617,-0.02633591927587986,-0.007288288325071335,0.007542868843302131,0.12398552149534225,0.02847561426460743,-0.0061295852065086365,-0.02605700120329857,-0.14245586097240448,-0.05868605524301529,-0.04408884048461914,1.0823830962181091e-05,-0.010976560413837433,0.11780246999114752,0.029515604488551617,-0.02633591927587986,-0.007288288325071335,0.006135923151542766,0.1198209437648451,0.035281558121369905,-0.004601942363656963,-0.010737865515199285,-0.1487961364249073,-0.05829126993965428,-0.03681553890925526,-0.009203884727313927,-0.007669903939428124,0.11368502061330234,0.039166279245535285,-0.027441211872176394,-0.003272492347489539,right_ankle,14,7.1,30,31,1
10.222214821999998,0.0,0.0,-0.2945243112740431,-0.04581489286485115,0.06763150851478027,-0.05609121153219632,-0.0020396804193525933,-0.9984235652730945,1.0,1.0,0.0,0.15343553863686413,0.07671776931843206,0.07671776931843206,-0.0,0.3835888465921603,0.07671776931843206,-0.07671776931843206,0.0,0.07671776931843206,0.0,0.0,0.07671776931843206,0.07671776931843206,0.012580053880810738,0.008506406098604202,0.0817658007144928,0.13656418025493622,0.1222284734249115,0.27597469091415405,0.3393689692020416,-0.1842479407787323,0.0008424092084169388,-0.060929931700229645,-0.016127804294228554,0.06686368584632874,0.055557698011398315,0.2004443258047104,0.00558847445063293,0.12429965008050203,0.02881903015077114,-0.005128864198923111,-0.025293417274951935,-0.13887503743171692,-0.05705302208662033,-0.046061985194683075,0.0002106023021042347,-0.01104369293898344,0.11814109748229384,0.0284096272662282,-0.025380484759807587,-0.0057394541800022125,0.00558847445063293,0.12429965008050203,0.02881903015077114,-0.005128864198923111,-0.025293417274951935,-0.13887503743171692,-0.05705302208662033,-0.046061985194683075,0.0002106023021042347,-0.01104369293898344,0.11814109748229384,0.0284096272662282,-0.025380484759807587,-0.0057394541800022125,0.006135923151542766,0.12288890534061626,0.035281558121369905,-0.003067961575771161,-0.010737865515199285,-0.14266021327336453,-0.05522330836388312,-0.03681553890925526,-0.009203884727313927,-0.007669903939428124,0.11368502061330234,0.039166279245535285,-0.025907231084291035,-0.000204530771717934,,,,,,
10.243289586000003,0.0,0.0,-0.35015668118136234,-0.002181661564992912,0.02181661564992912,-0.05507414953049892,0.004079566631888808,-0.998473933154786,1.0,1.0,0.0,-0.0,-0.0,0.07671776931843206,-0.0,0.30687107727372825,0.07671776931843206,-0.07671776931843206,0.0,-0.0,-0.07671776931843206,0.0,0.07671776931843206,0.15343553863686413,0.011783553287386894,0.01248224638402462,0.07403409481048584,0.12869973480701447,0.09771198034286499,0.30194708704948425,0.34332430362701416,-0.18575419485569,0.008505154401063919,-0.06229502707719803,-0.015912940725684166,0.06351059675216675,0.05488649755716324,0.19153141975402832,0.005389349302276969,0.12529361015185714,0.0268861036747694,-0.007094975560903549,-0.03142254054546356,-0.13238193839788437,-0.0560641884803772,-0.0464385487139225,0.0021262886002659798,-0.011384966783225536,0.11819481337442994,0.027571354992687702,-0.025548284873366356,-0.00796768069267273,0.005389349302276969,0.12529361015185714,0.0268861036747694,-0.007094975560903549,-0.03142254054546356,-0.13238193839788437,-0.0560641884803772,-0.0464385487139225,0.0021262886002659798,-0.011384966783225536,0.11819481337442994,0.027571354992687702,-0.025548284873366356,-0.00796768069267273,0.006135923151542766,0.12288890534061626,0.03681553890925526,-0.0015339807878858025,-0.010737865515199285,-0.1365242901218222,-0.053689327575997314,-0.03988350048502687,-0.009203884727313927,-0.007669903939428124,0.11215103982541698,0.039166279245535285,-0.024373250296405233,0.0013294500161674244,,,,,,
10.262222952000002,0.0,0.0,-0.32506757318394386,0.04254240051736178,0.0272707695624114,-0.05507174363527409,0.010198471043569276,-0.9984303151654321,1.0,1.0,0.0,-0.0,0.07671776931843206,-0.0,-0.0,0.30687107727372825,0.15343553863686413,-0.07671776931843206,0.07671776931843206,-0.0,0.0,0.0,0.07671776931843206,0.07671776931843206,0.012055983766913414,0.017400182783603668,0.07039430737495422,0.12122778594493866,0.0824911817908287,0.3234139084815979,0.3545110821723938,-0.19200222194194794,0.010356470942497253,-0.06693840026855469,-0.018620643764734268,0.06659180670976639,0.054098404943943024,0.19007334113121033,0.005457456922158599,0.1265230942517519,0.025976156815886497,-0.0089629627764225,-0.03522774018347263,-0.12701523303985596,-0.05326749384403229,-0.048000555485486984,0.0025891177356243134,-0.012545810081064701,0.11751788761466742,0.028341657482087612,-0.02574530802667141,-0.008332200348377228,0.005457456922158599,0.1265230942517519,0.025976156815886497,-0.0089629627764225,-0.03522774018347263,-0.12701523303985596,-0.05326749384403229,-0.048000555485486984,0.0025891177356243134,-0.012545810081064701,0.11751788761466742,0.028341657482087612,-0.02574530802667141,-0.008332200348377228,0.006135923151542766,0.12288890534061626,0.03681553890925526,-0.0015339807878858025,-0.010737865515199285,-0.13038836697027945,-0.052155346788111956,-0.04141748127291223,-0.007669903939428124,-0.007669903939428124,0.11215103982541698,0.04070026003342109,-0.02283926950851943,0.002863430804053227,,,,,,
10.282295517999998,0.0,0.0,-0.3327033886614191,0.04254240051736178,-0.03381575425739013,-0.05405296471855065,0.01325827436492752,-0.9984500464049263,1.0,1.0,0.07671776931843206,-0.0,-0.0,-0.0,-0.0,0.2301533079552962,0.07671776931843206,-0.07671776931843206,0.07671776931843206,-0.0,0.0,0.07671776931843206,0.07671776931843206,0.07671776931843206,0.013108363375067711,0.01658601500093937,0.06568488478660583,0.1185591071844101,0.07296349853277206,0.34062159061431885,0.3614060580730438,-0.1978127658367157,0.017924439162015915,-0.06755755096673965,-0.016504768282175064,0.06688694655895233,0.05572204291820526,0.18797607719898224,0.005720551824197173,0.12631955230608582,0.0247988011687994,-0.009630132466554642,-0.037609660997986794,-0.12271331250667572,-0.05154374986886978,-0.049453191459178925,0.004481109790503979,-0.012700597755610943,0.11804685648530722,0.028415442444384098,-0.02533939853310585,-0.00885651633143425,0.005720551824197173,0.12631955230608582,0.0247988011687994,-0.009630132466554642,-0.037609660997986794,-0.12271331250667572,-0.05154374986886978,-0.049453191459178925,0.004481109790503979,-0.012700597755610943,0.11804685648530722,0.028415442444384098,-0.02533939853310585,-0.00885651633143425,0.006135923151542766,0.12288890534061626,0.03681553890925526,-0.0015339807878858025,-0.010737865515199285,-0.12578642460662248,-0.04908738521234035,-0.04295146206079803,-0.006135923151542766,-0.007669903939428124,0.11215103982541698,0.04070026003342109,-0.021305288720634072,0.002863430804053227,,,,,,
10.303831360000004,0.0,0.0,-0.2781618495365963,0.039269908169872414,-0.06435901616729091,-0.0530284920932423,0.02141535257611708,-0.9983633415246964,1.0,1.0,0.0,-0.0,-0.0,-0.0,-0.0,0.2301533079552962,0.15343553863686413,-0.07671776931843206,0.15343553863686413,-0.0,0.0,0.0,0.0,0.07671776931843206,0.01843995414674282,0.014886319637298584,0.07117368280887604,0.11464294791221619,0.07914385199546814,0.34987884759902954,0.3664882779121399,-0.196929931640625,0.02098410204052925,-0.06923940777778625,-0.01821078546345234,0.06167621165513992,0.06094136834144592,0.18684624135494232,0.007053449517115951,0.12589462846517563,0.02617100067436695,-0.010609172284603119,-0.036064572632312775,-0.12039899826049805,-0.050273194909095764,-0.04923248291015625,0.005246025510132313,-0.013121061958372593,0.1176203521899879,0.027112758718430996,-0.024034567177295685,-0.009138975292444229,0.007053449517115951,0.12589462846517563,0.02617100067436695,-0.010609172284603119,-0.036064572632312775,-0.12039899826049805,-0.050273194909095764,-0.04923248291015625,0.005246025510132313,-0.013121061958372593,0.1176203521899879,0.027112758718430996,-0.024034567177295685,-0.009138975292444229,0.007669903939428124,0.12288890534061626,0.03681553890925526,-0.0015339807878858025,-0.010737865515199285,-0.12118448224296552,-0.04601942363656919,-0.04295146206079803,-0.003067961575771161,-0.007669903939428124,0.11215103982541698,0.04070026003342109,-0.021305288720634072,0.004397411591939029,left_hip_pitch,22,7.1,31,1085,2
10.322456317000004,0.0,0.0,-0.22689280275926285,0.04799655442984406,-0.016362461737446838,-0.052059520784849614,0.025519372933749812,-0.9983178691682926,1.0,1.0,0.0,-0.0,-0.0,0.07671776931843206,-0.0,0.2301533079552962,0.15343553863686413,-0.07671776931843206,0.0,-0.0,0.0,0.0,0.07671776931843206,0.0,0.015975305810570717,0.015624715015292168,0.07195046544075012,0.10622622072696686,0.07623954862356186,0.3650808334350586,0.37396693229675293,-0.20187227427959442,0.019658904522657394,-0.06165348365902901,-0.018467627465724945,0.047792889177799225,0.05994248390197754,0.17980752885341644,0.006437287433072925,0.12607922730967402,0.026365196332335472,-0.012713354080915451,-0.036790648475289345,-0.11659850180149078,-0.048403531312942505,-0.050468068569898605,0.004914726130664349,-0.011224580928683281,0.11755614168941975,0.02364192809909582,-0.02428428828716278,-0.010898653417825699,0.006437287433072925,0.12607922730967402,0.026365196332335472,-0.012713354080915451,-0.036790648475289345,-0.11659850180149078,-0.048403531312942505,-0.050468068569898605,0.004914726130664349,-0.011224580928683281,0.11755614168941975,0.02364192809909582,-0.02428428828716278,-0.010898653417825699,0.007669903939428124,0.12288890534061626,0.03681553890925526,-0.0,-0.010737865515199285,-0.11811652066719436,-0.04448544284868339,-0.04601942363656919,-0.003067961575771161,-0.007669903939428124,0.11215103982541698,0.04070026003342109,-0.01977130793274827,0.005931392379824388,,,,,,
10.342441717,0.0,0.0,-0.17780541754692233,0.028361600344907856,-0.028361600344907856,-0.05205670027127495,0.027559429555380856,-0.9982637816726843,1.0,1.0,0.0,-0.0,-0.0,-0.0,-0.0,0.2301533079552962,0.07671776931843206,-0.07671776931843206,0.07671776931843206,-0.0,0.0,0.0,0.0,0.07671776931843206,0.016128120943903923,0.01711035519838333,0.08017155528068542,0.09903032332658768,0.07910133898258209,0.37714001536369324,0.37792712450027466,-0.2010379582643509,0.016847524791955948,-0.05483374744653702,-0.01859329454600811,0.03975260257720947,0.06708548218011856,0.171909898519516,0.006475491216406226,0.12645063735544682,0.028420468792319298,-0.014512328431010246,-0.036075200885534286,-0.11358370631933212,-0.04741348326206207,-0.05025948956608772,0.004211881197988987,-0.009519646875560284,0.11752472491934896,0.021631856448948383,-0.022498538717627525,-0.012873061001300812,0.006475491216406226,0.12645063735544682,0.028420468792319298,-0.014512328431010246,-0.036075200885534286,-0.11358370631933212,-0.04741348326206207,-0.05025948956608772,0.004211881197988987,-0.009519646875560284,0.11752472491934896,0.021631856448948383,-0.022498538717627525,-0.012873061001300812,0.007669903939428124,0.12288890534061626,0.038349519697141066,-0.0,-0.010737865515199285,-0.11198059751565159,-0.04141748127291223,-0.04601942363656919,-0.0015339807878858025,-0.007669903939428124,0.11215103982541698,0.04070026003342109,-0.01977130793274827,0.005931392379824388,,,,,,
10.36258621200001,0.0,0.0,-0.09817477042468103,-0.001090830782496456,0.02399827721492203,-0.05205206369247865,0.03061886099557568,-0.9981748684557671,1.0,1.0,0.0,-0.0,0.07671776931843206,-0.0,-0.0,0.2301533079552962,0.07671776931843206,0.0,0.0,-0.0,0.0,0.0,0.0,0.0,0.009196041151881218,0.012212065979838371,0.08627615869045258,0.0953255295753479,0.0963839739561081,0.38199377059936523,0.38020703196525574,-0.19608911871910095,0.013236835598945618,-0.050310105085372925,-0.015052258968353271,0.03481290489435196,0.07004766166210175,0.1665569245815277,0.00474247126840055,0.12522606505081058,0.029946619644761086,-0.01543852686882019,-0.031754542142152786,-0.11237026751041412,-0.0468435063958168,-0.04902227967977524,0.0033092088997364044,-0.00838873628526926,0.11840998381376266,0.020396932028234005,-0.02175799384713173,-0.014211304485797882,0.00474247126840055,0.12522606505081058,0.029946619644761086,-0.01543852686882019,-0.031754542142152786,-0.11237026751041412,-0.0468435063958168,-0.04902227967977524,0.0033092088997364044,-0.00838873628526926,0.11840998381376266,0.020396932028234005,-0.02175799384713173,-0.014211304485797882,0.007669903939428124,0.12288890534061626,0.038349519697141066,-0.0,-0.010737865515199285,-0.10737865515199507,-0.03988350048502687,-0.04601942363656919,-0.0015339807878858025,-0.007669903939428124,0.11215103982541698,0.04070026003342109,-0.01977130793274827,0.005931392379824388,,,,,,
10.382563371000003,0.0,0.0,-0.055632369907319255,-0.009817477042468103,0.04254240051736178,-0.05205206369247865,0.03061886099557568,-0.9981748684557671,1.0,1.0,0.0,-0.0,-0.0,-0.0,-0.0,0.2301533079552962,0.15343553863686413,0.0,0.0,-0.0,0.0,0.07671776931843206,0.0,0.0,0.005721660330891609,0.012675371021032333,0.09024052321910858,0.08754163980484009,0.10519717633724213,0.3881740868091583,0.38352033495903015,-0.1827199012041092,0.008470311760902405,-0.04642966762185097,-0.014311505481600761,0.034102924168109894,0.07291074097156525,0.16056181490421295,0.0038738760631531477,0.12534189131110907,0.030937710776925087,-0.017384499311447144,-0.029551241546869278,-0.11082518845796585,-0.0460151806473732,-0.0456799753010273,0.002117577940225601,-0.007418626919388771,0.11859517218545079,0.02021943684667349,-0.021042224019765854,-0.01571008190512657,0.0038738760631531477,0.12534189131110907,0.030937710776925087,-0.017384499311447144,-0.029551241546869278,-0.11082518845796585,-0.0460151806473732,-0.0456799753010273,0.002117577940225601,-0.007418626919388771,0.11859517218545079,0.02021943684667349,-0.021042224019765854,-0.01571008190512657,0.007669903939428124,0.12288890534061626,0.038349519697141066,-0.0,-0.010737865515199285,-0.10431069357622347,-0.038349519697141066,-0.04601942363656919,-0.0015339807878858025,-0.007669903939428124,0.11215103982541698,0.042234240821306446,-0.01977130793274827,0.005931392379824388,,,,,,
10.404127680000002,0.0,0.0,-0.00545415391248228,-0.001090830782496456,0.03381575425739013,-0.0520487022698106,0.032658009267332144,-0.9981104082328385,1.0,1.0,0.0,-0.0,-0.0,-0.0,-0.0,0.15343553863686413,0.07671776931843206,0.0,0.0,-0.0,0.0,0.0,0.0,0.0,0.0044950637966394424,0.015224244445562363,0.09364764392375946,0.07399806380271912,0.10447601974010468,0.39972391724586487,0.3908001184463501,-0.1842251569032669,0.004901690408587456,-0.041865795850753784,-0.013176098465919495,0.031112991273403168,0.06982086598873138,0.14587435126304626,0.003567226929590106,0.12597910966724157,0.03178949095308781,-0.020770393311977386,-0.02973153069615364,-0.10793773084878922,-0.04419523477554321,-0.04605628922581673,0.001225422602146864,-0.006277658976614475,0.11887902393937111,0.019471953622996807,-0.02181469276547432,-0.019381947815418243,0.003567226929590106,0.12597910966724157,0.03178949095308781,-0.020770393311977386,-0.02973153069615364,-0.10793773084878922,-0.04419523477554321,-0.04605628922581673,0.001225422602146864,-0.006277658976614475,0.11887902393937111,0.019471953622996807,-0.02181469276547432,-0.019381947815418243,0.007669903939428124,0.12288890534061626,0.038349519697141066,-0.0,-0.010737865515199285,-0.1012427320004523,-0.035281558121369905,-0.04601942363656919,-0.0015339807878858025,-0.007669903939428124,0.11215103982541698,0.042234240821306446,-0.01977130793274827,0.005931392379824388,right_hip_pitch,12,7.1,32,121,8
10.422740637000004,0.0,0.0,0.03490658503988659,-0.002181661564992912,0.03599741582238305,-0.0520487022698106,0.032658009267332144,-0.9981104082328385,1.0,1.0,0.0,-0.0,-0.0,-0.0,-0.0,0.15343553863686413,0.07671776931843206,0.0,-0.07671776931843206,-0.0,0.0,0.0,0.0,0.0,-9.222328662872314e-05,0.01056508719921112,0.10030850768089294,0.07229381799697876,0.11996980011463165,0.3987244963645935,0.39085108041763306,-0.17890246212482452,0.000539219006896019,-0.03909962624311447,-0.009684603661298752,0.031075313687324524,0.0722234919667244,0.1505192667245865,0.0024204051587730646,0.12481432035565376,0.03345470689237118,-0.021196454763412476,-0.025858085602521896,-0.10818758606910706,-0.04418249428272247,-0.04472561553120613,0.00013480475172400475,-0.005586116574704647,0.1197518976405263,0.019462534226477146,-0.021214036270976067,-0.018220718950033188,0.0024204051587730646,0.12481432035565376,0.03345470689237118,-0.021196454763412476,-0.025858085602521896,-0.10818758606910706,-0.04418249428272247,-0.04472561553120613,0.00013480475172400475,-0.005586116574704647,0.1197518976405263,0.019462534226477146,-0.021214036270976067,-0.018220718950033188,0.007669903939428124,0.12288890534061626,0.038349519697141066,-0.0,-0.010737865515199285,-0.0997087512125665,-0.035281558121369905,-0.04601942363656919,-0.003067961575771161,-0.007669903939428124,0.11215103982541698,0.042234240821306446,-0.01977130793274827,0.005931392379824388,,,,,,
10.442836131000007,0.0,0.0,0.06763150851478027,-0.002181661564992912,0.038179077387375956,-0.052050410008007586,0.03163848451467128,-0.9981431566241454,1.0,1.0,0.0,0.07671776931843206,-0.0,-0.0,-0.0,0.07671776931843206,-0.0,0.0,0.0,-0.0,0.0,0.0,0.0,0.0,-0.002292126417160034,0.013478877022862434,0.10451474785804749,0.0646880716085434,0.12596547603607178,0.4019089937210083,0.3920179605484009,-0.17638137936592102,-0.0037404801696538925,-0.034577611833810806,-0.010096492245793343,0.030397966504096985,0.06845437735319138,0.1453104317188263,0.0018704293761402369,0.1255427678115666,0.03450626693665981,-0.023097891360521317,-0.024359166622161865,-0.10739146173000336,-0.04389077425003052,-0.044095344841480255,-0.0009351200424134731,-0.004455612972378731,0.11964892549440265,0.01929319743067026,-0.02215631492435932,-0.019522927701473236,0.0018704293761402369,0.1255427678115666,0.03450626693665981,-0.023097891360521317,-0.024359166622161865,-0.10739146173000336,-0.04389077425003052,-0.044095344841480255,-0.0009351200424134731,-0.004455612972378731,0.11964892549440265,0.01929319743067026,-0.02215631492435932,-0.019522927701473236,0.007669903939428124,0.12442288612850207,0.038349519697141066,-0.0,-0.010737865515199285,-0.09817477042468115,-0.035281558121369905,-0.04601942363656919,-0.003067961575771161,-0.007669903939428124,0.11215103982541698,0.042234240821306446,-0.01977130793274827,0.005931392379824388,,,,,,
10.462831512999998,0.0,0.0,0.07963064712224129,-0.007635815477475192,0.016362461737446838,-0.052053663307745836,0.02959914188087508,-0.9982055434308906,1.0,1.0,0.0,0.07671776931843206,-0.0,-0.0,-0.0,-0.0,-0.0,0.0,-0.07671776931843206,-0.0,0.0,0.0,0.0,0.0,-0.006940072402358055,0.010659180581569672,0.10885466635227203,0.06540350615978241,0.14078062772750854,0.4000049829483032,0.39068567752838135,-0.16950038075447083,-0.005366992205381393,-0.032710835337638855,-0.00683921342715621,0.034314580261707306,0.06792183965444565,0.14936110377311707,0.0007084428798407316,0.1248378437012434,0.03559124656021595,-0.022919032722711563,-0.020655378699302673,-0.10786746442317963,-0.0442238450050354,-0.042375095188617706,-0.0013417480513453484,-0.003988918848335743,0.12046324519906193,0.02027235087007284,-0.022289449349045753,-0.018510259687900543,0.0007084428798407316,0.1248378437012434,0.03559124656021595,-0.022919032722711563,-0.020655378699302673,-0.10786746442317963,-0.0442238450050354,-0.042375095188617706,-0.0013417480513453484,-0.003988918848335743,0.12046324519906193,0.02027235087007284,-0.022289449349045753,-0.018510259687900543,0.007669903939428124,0.12595686691638786,0.038349519697141066,-0.0,-0.010737865515199285,-0.09664078963679534,-0.035281558121369905,-0.04601942363656919,-0.004601942363656963,-0.007669903939428124,0.11215103982541698,0.042234240821306446,-0.01977130793274827,0.005931392379824388,,,,,,
10.48289393200001,0.0,0.0,0.07635815477475191,-0.018544123302439753,0.007635815477475192,-0.052053663307745836,0.02959914188087508,-0.9982055434308906,1.0,1.0,-0.07671776931843206,-0.0,-0.0,-0.0,-0.0,0.07671776931843206,-0.0,0.0,0.0,-0.0,0.0,0.0,0.0,-0.07671776931843206,-0.01064138114452362,0.009186353534460068,0.11136859655380249,0.06592351198196411,0.14966464042663574,0.396109938621521,0.38922417163848877,-0.16823896765708923,-0.00808863714337349,-0.03378760814666748,-0.007163648959249258,0.037597812712192535,0.06910352408885956,0.15587270259857178,-0.00021688430570065975,0.124469636939466,0.036219729110598564,-0.022789031267166138,-0.018434375524520874,-0.10884122550487518,-0.044589221477508545,-0.04205974191427231,-0.0020221592858433723,-0.004258112050592899,0.12038213631603867,0.02109315898269415,-0.021994028240442276,-0.016882359981536865,-0.00021688430570065975,0.124469636939466,0.036219729110598564,-0.022789031267166138,-0.018434375524520874,-0.10884122550487518,-0.044589221477508545,-0.04205974191427231,-0.0020221592858433723,-0.004258112050592899,0.12038213631603867,0.02109315898269415,-0.021994028240442276,-0.016882359981536865,0.006135923151542766,0.12595686691638786,0.038349519697141066,-0.0,-0.010737865515199285,-0.09664078963679534,-0.035281558121369905,-0.04601942363656919,-0.004601942363656963,-0.007669903939428124,0.11215103982541698,0.042234240821306446,-0.01977130793274827,0.005931392379824388,,,,,,
10.503970957000007,0.0,0.0,0.10799224746714914,-0.039269908169872414,-0.025089107997418487,-0.05307603744611489,0.026538018723057444,-0.9982377811980837,1.0,1.0,-0.07671776931843206,-0.0,-0.0,-0.0,-0.0,-0.0,-0.0,0.0,0.0,-0.0,0.0,0.0,0.0,-0.07671776931843206,-0.014611111022531986,0.008940063416957855,0.11345353722572327,0.06626284122467041,0.15127132833003998,0.39504581689834595,0.3887491822242737,-0.17108820378780365,-0.005863167345523834,-0.032888200134038925,-0.0051711504347622395,0.03963984549045563,0.06917812675237656,0.15496844053268433,-0.0012093167752027512,0.12440806441009045,0.03674096427857876,-0.022704198956489563,-0.018032703548669815,-0.10910725593566895,-0.04470796883106232,-0.04277205094695091,-0.0014657918363809586,-0.0040332600474357605,0.12088026094716042,0.021603667177259922,-0.021975377574563026,-0.017108425498008728,-0.0012093167752027512,0.12440806441009045,0.03674096427857876,-0.022704198956489563,-0.018032703548669815,-0.10910725593566895,-0.04470796883106232,-0.04277205094695091,-0.0014657918363809586,-0.0040332600474357605,0.12088026094716042,0.021603667177259922,-0.021975377574563026,-0.017108425498008728,0.004601942363656963,0.12595686691638786,0.038349519697141066,-0.0,-0.010737865515199285,-0.09664078963679534,-0.035281558121369905,-0.04601942363656919,-0.004601942363656963,-0.007669903939428124,0.11215103982541698,0.042234240821306446,-0.01977130793274827,0.002863430804053227,left_knee,23,7.0,30,1137,7
10.523020123000009,0.0,0.0,0.09272061651219876,-0.03381575425739013,-0.03490658503988659,-0.053078802430787664,0.02449790881420969,-0.9982897841790448,1.0,1.0,-0.07671776931843206,-0.0,-0.0,-0.0,-0.0,-0.0,-0.0,0.0,0.0,-0.0,0.0,0.0,0.0,-0.15343553863686413,-0.018486257642507553,0.006782349199056625,0.11279994249343872,0.070824533700943,0.15738064050674438,0.3894907832145691,0.3863469958305359,-0.17215998470783234,-0.00475485622882843,-0.03586522489786148,-0.005263555329293013,0.046801477670669556,0.07127141952514648,0.15721392631530762,-0.002178103430196643,0.12386863585561514,0.03657756559550762,-0.021563775837421417,-0.016505375504493713,-0.11049601435661316,-0.045308515429496765,-0.043039996176958084,-0.0011887140572071075,-0.004777516238391399,0.12085715972352773,0.023394075222313404,-0.021452054381370544,-0.016547054052352905,-0.002178103430196643,0.12386863585561514,0.03657756559550762,-0.021563775837421417,-0.016505375504493713,-0.11049601435661316,-0.045308515429496765,-0.043039996176958084,-0.0011887140572071075,-0.004777516238391399,0.12085715972352773,0.023394075222313404,-0.021452054381370544,-0.016547054052352905,0.003067961575771161,0.12595686691638786,0.038349519697141066,-0.0015339807878858025,-0.010737865515199285,-0.09664078963679534,-0.035281558121369905,-0.04601942363656919,-0.004601942363656963,-0.007669903939428124,0.11215103982541698,0.042234240821306446,-0.01977130793274827,-0.000204530771717934,,,,,,
10.543472788000003,0.0,0.0,0.10035643198967395,-0.037088246604879506,-0.07090400086226964,-0.053078802430787664,0.02449790881420969,-0.9982897841790448,1.0,1.0,-0.07671776931843206,-0.0,-0.0,-0.07671776931843206,-0.0,-0.0,-0.0,0.0,0.07671776931843206,-0.0,0.0,0.0,0.0,0.0,-0.021188458427786827,0.007251504808664322,0.11338390409946442,0.06969724595546722,0.15904241800308228,0.3903140127658844,0.3872051537036896,-0.17085005342960358,-0.0017699431627988815,-0.03378358483314514,-0.0050782556645572186,0.04665379971265793,0.07257602363824844,0.16048894822597504,-0.0028536536265164614,0.12398592475801706,0.036723555997014046,-0.02184559777379036,-0.01608993113040924,-0.11029020696878433,-0.045093975961208344,-0.042712513357400894,-0.0004424857906997204,-0.004257106222212315,0.12090348463971168,0.023357155732810497,-0.021125903353095055,-0.01572829857468605,-0.0028536536265164614,0.12398592475801706,0.036723555997014046,-0.02184559777379036,-0.01608993113040924,-0.11029020696878433,-0.045093975961208344,-0.042712513357400894,-0.0004424857906997204,-0.004257106222212315,0.12090348463971168,0.023357155732810497,-0.021125903353095055,-0.01572829857468605,0.0015339807878858025,0.12595686691638786,0.038349519697141066,-0.0015339807878858025,-0.010737865515199285,-0.09664078963679534,-0.035281558121369905,-0.04601942363656919,-0.003067961575771161,-0.007669903939428124,0.11215103982541698,0.042234240821306446,-0.01977130793274827,-0.000204530771717934,,,,,,
10.563490318000007,0.0,0.0,0.15271630954950383,-0.04145156973486533,-0.018544123302439753,-0.054101549790559283,0.020415679166248785,-0.9983267112295655,1.0,1.0,-0.15343553863686413,-0.0,-0.0,-0.0,-0.0,-0.0,-0.0,0.0,0.0,-0.0,0.0,0.0,0.0,-0.07671776931843206,-0.0355428010225296,0.003930281847715378,0.11267930269241333,0.06669903546571732,0.16940559446811676,0.3860236406326294,0.3879633843898773,-0.16885238885879517,-0.0034708306193351746,-0.03538212552666664,-0.0025298227556049824,0.05628705769777298,0.06796664744615555,0.1490762084722519,-0.006442239275202155,0.12315561901777983,0.036547405645251274,-0.022595150396227837,-0.01349913701415062,-0.11136280000209808,-0.04490441828966141,-0.04221309721469879,-0.0008677076548337936,-0.0046567413955926895,0.12154059286694974,0.02576547022908926,-0.02227824740111828,-0.018581483513116837,-0.006442239275202155,0.12315561901777983,0.036547405645251274,-0.022595150396227837,-0.01349913701415062,-0.11136280000209808,-0.04490441828966141,-0.04221309721469879,-0.0008677076548337936,-0.0046567413955926895,0.12154059286694974,0.02576547022908926,-0.02227824740111828,-0.018581483513116837,-0.0015339807878858025,0.12595686691638786,0.038349519697141066,-0.0015339807878858025,-0.010737865515199285,-0.09664078963679534,-0.035281558121369905,-0.04601942363656919,-0.003067961575771161,-0.007669903939428124,0.11215103982541698,0.042234240821306446,-0.01977130793274827,-0.0017385115596037365,,,,,,
10.583237214999997,0.0,0.0,0.15271630954950383,-0.04145156973486533,-0.018544123302439753,-0.05512144348972152,0.018373814496573836,-0.9983105876471785,1.0,1.0,0.0,-0.0,-0.0,-0.0,-0.0,-0.0,-0.0,0.0,0.0,-0.0,0.0,0.0,0.0,-0.15343553863686413,-0.03217774257063866,0.0040761008858680725,0.11653061211109161,0.06683617830276489,0.16964995861053467,0.38427111506462097,0.38564401865005493,-0.17032842338085175,-0.003235066309571266,-0.031972020864486694,-0.0031011677347123623,0.056400611996650696,0.07094068825244904,0.1510290503501892,-0.005600974662229419,0.123192073777318,0.037510232999920845,-0.022560864686965942,-0.013438045978546143,-0.11180093139410019,-0.045484259724617004,-0.042582105845212936,-0.0008087665773928165,-0.003804215230047703,0.12139775662217289,0.02579385880380869,-0.021534737199544907,-0.018093273043632507,-0.005600974662229419,0.123192073777318,0.037510232999920845,-0.022560864686965942,-0.013438045978546143,-0.11180093139410019,-0.045484259724617004,-0.042582105845212936,-0.0008087665773928165,-0.003804215230047703,0.12139775662217289,0.02579385880380869,-0.021534737199544907,-0.018093273043632507,-0.0015339807878858025,0.12595686691638786,0.038349519697141066,-0.0015339807878858025,-0.010737865515199285,-0.09664078963679534,-0.035281558121369905,-0.04601942363656919,-0.003067961575771161,-0.007669903939428124,0.11215103982541698,0.042234240821306446,-0.01977130793274827,-0.004806473135374897,,,,,,
10.604539336000002,0.0,0.0,0.12871803233458182,-0.04036073895236887,0.030543261909900768,-0.056141918472599084,0.015311432310708839,-0.9983053866582163,1.0,1.0,-0.07671776931843206,-0.0,-0.0,-0.07671776931843206,-0.0,-0.0,-0.0,0.0,0.0,-0.0,0.0,0.0,0.0,-0.07671776931843206,-0.036361418664455414,0.004609555006027222,0.11450980603694916,0.07026472687721252,0.16988500952720642,0.3780387043952942,0.38808971643447876,-0.1630508452653885,-0.0041006579995155334,-0.034582942724227905,-0.0039056050591170788,0.05988359451293945,0.07255847007036209,0.15543918311595917,-0.006646893685683608,0.12332543730735779,0.03700503148138523,-0.021703727543354034,-0.013379283249378204,-0.11335903406143188,-0.04487283527851105,-0.04076271131634712,-0.0010251644998788834,-0.0044569456949830055,0.12119664729107171,0.02666460443288088,-0.021130291745066643,-0.016990739852190018,-0.006646893685683608,0.12332543730735779,0.03700503148138523,-0.021703727543354034,-0.013379283249378204,-0.11335903406143188,-0.04487283527851105,-0.04076271131634712,-0.0010251644998788834,-0.0044569456949830055,0.12119664729107171,0.02666460443288088,-0.021130291745066643,-0.016990739852190018,-0.003067961575771161,0.12595686691638786,0.038349519697141066,-0.003067961575771161,-0.012271846303085088,-0.09664078963679534,-0.035281558121369905,-0.04601942363656919,-0.003067961575771161,-0.007669903939428124,0.11215103982541698,0.04070026003342109,-0.01977130793274827,-0.0063404539232607,right_knee,13,7.1,30,23,0
10.623491444999999,0.0,0.0,0.13526301702956053,-0.015271630954950384,0.03490658503988659,-0.0560871282471562,0.01223719161756135,-0.9983508827993803,1.0,1.0,-0.07671776931843206,-0.07671776931843206,-0.0,-0.07671776931843206,-0.07671776931843206,-0.0,-0.0,0.0,0.0,-0.0,0.0,-0.07671776931843206,0.0,-0.07671776931843206,-0.04080399125814438,0.001807045191526413,0.11025388538837433,0.06830623745918274,0.17134515941143036,0.37694865465164185,0.3884196877479553,-0.16937558352947235,-0.0040651969611644745,-0.03545700013637543,-0.002041077706962824,0.06421596556901932,0.0679468885064125,0.14787259697914124,-0.007757536834105849,0.12262480985373259,0.035941051319241524,-0.02219334989786148,-0.01301424577832222,-0.11363154649734497,-0.04479034245014191,-0.04234389588236809,-0.0010162992402911186,-0.004675460048019886,0.12166277912911028,0.027747697196900845,-0.02228318713605404,-0.0188823863863945,-0.007757536834105849,0.12262480985373259,0.035941051319241524,-0.02219334989786148,-0.01301424577832222,-0.11363154649734497,-0.04479034245014191,-0.04234389588236809,-0.0010162992402911186,-0.004675460048019886,0.12166277912911028,0.027747697196900845,-0.02228318713605404,-0.0188823863863945,-0.004601942363656963,0.12442288612850207,0.038349519697141066,-0.006135923151542766,-0.012271846303085088,-0.09664078963679534,-0.035281558121369905,-0.04601942363656919,-0.003067961575771161,-0.007669903939428124,0.11215103982541698,0.04070026003342109,-0.01977130793274827,-0.007874434711146502,,,,,,
10.643573197999999,0.0,0.0,0.16144295580947549,0.0,0.06435901616729091,-0.05608841146921912,0.010197892994403476,-0.9983737241521004,1.0,1.0,0.0,-0.0,-0.0,-0.15343553863686413,-0.0,-0.0,-0.0,0.0,0.0,-0.0,0.0,0.0,0.0,0.0,-0.04100465402007103,-0.0013098008930683136,0.10891620814800262,0.06492333859205246,0.17353412508964539,0.3793834447860718,0.38907328248023987,-0.16829164326190948,-0.003789696842432022,-0.035609904676675797,0.001986064948141575,0.06494548171758652,0.06598956137895584,0.14826275408267975,-0.007807702524587512,0.1218455983325839,0.0356066320091486,-0.02303907461464405,-0.012467004358768463,-0.11302284896373749,-0.04462694376707077,-0.04207291081547737,-0.0009474242106080055,-0.004713686183094978,0.12266956479288638,0.027930076234042645,-0.022772518917918205,-0.018784847110509872,-0.007807702524587512,0.1218455983325839,0.0356066320091486,-0.02303907461464405,-0.012467004358768463,-0.11302284896373749,-0.04462694376707077,-0.04207291081547737,-0.0009474242106080055,-0.004713686183094978,0.12266956479288638,0.027930076234042645,-0.022772518917918205,-0.018784847110509872,-0.004601942363656963,0.12288890534061626,0.038349519697141066,-0.009203884727313927,-0.012271846303085088,-0.09664078963679534,-0.035281558121369905,-0.04601942363656919,-0.003067961575771161,-0.007669903939428124,0.11368502061330234,0.04070026003342109,-0.01977130793274827,-0.007874434711146502,,,,,,
10.663729637000003,0.0,0.0,0.1538071403320003,0.00545415391248228,0.04145156973486533,-0.05609027813127591,0.0061189394325028255,-0.9984069507367112,1.0,1.0,0.0,-0.07671776931843206,-0.0,-0.07671776931843206,-0.0,-0.0,-0.0,0.0,0.0,-0.0,0.07671776931843206,0.0,0.0,-0.07671776931843206,-0.041540052741765976,-0.0033611170947551727,0.10767100751399994,0.06239985674619675,0.1758793741464615,0.3741082549095154,0.3889977037906647,-0.17073586583137512,-0.003220563754439354,-0.037102993577718735,0.003229887690395117,0.0706377699971199,0.06474403291940689,0.14086128771305084,-0.007941552205011249,0.12133276928216219,0.035295331850647926,-0.02366994507610798,-0.011880692094564438,-0.11434164643287659,-0.04464583843946457,-0.04268396645784378,-0.0008051409386098385,-0.005086958408355713,0.12298052047844976,0.02935314830392599,-0.023083901032805443,-0.0206352137029171,-0.007941552205011249,0.12133276928216219,0.035295331850647926,-0.02366994507610798,-0.011880692094564438,-0.11434164643287659,-0.04464583843946457,-0.04268396645784378,-0.0008051409386098385,-0.005086958408355713,0.12298052047844976,0.02935314830392599,-0.023083901032805443,-0.0206352137029171,-0.004601942363656963,0.1213549245527309,0.038349519697141066,-0.010737865515199285,-0.012271846303085088,-0.09664078963679534,-0.035281558121369905,-0.04601942363656919,-0.003067961575771161,-0.007669903939428124,0.11368502061330234,0.04070026003342109,-0.01977130793274827,-0.00940841549903186,,,,,,
10.683647703000005,0.0,0.0,0.14508049407202864,-0.003272492347489368,0.03599741582238305,-0.056090598982586407,0.0050991453620533094,-0.9984126618900381,1.0,1.0,0.0,-0.07671776931843206,-0.0,-0.15343553863686413,-0.0,-0.0,-0.0,0.0,0.0,-0.0,0.0,0.0,0.0,-0.07671776931843206,-0.038905322551727295,-0.0016633234918117523,0.10818852484226227,0.06633125990629196,0.17469075322151184,0.3710804283618927,0.38654929399490356,-0.1731790155172348,-0.0032273344695568085,-0.03853229433298111,0.0015632198192179203,0.069514200091362,0.06783512234687805,0.14819958806037903,-0.007282869657501578,0.12175721768289804,0.03542471118271351,-0.022687094286084175,-0.01217784732580185,-0.11509860306978226,-0.045257940888404846,-0.0432947538793087,-0.0008068336173892021,-0.005444283597171307,0.12256385351065546,0.029072255827486515,-0.022311128675937653,-0.018800638616085052,-0.007282869657501578,0.12175721768289804,0.03542471118271351,-0.022687094286084175,-0.01217784732580185,-0.11509860306978226,-0.045257940888404846,-0.0432947538793087,-0.0008068336173892021,-0.005444283597171307,0.12256385351065546,0.029072255827486515,-0.022311128675937653,-0.018800638616085052,-0.004601942363656963,0.1213549245527309,0.038349519697141066,-0.012271846303085088,-0.012271846303085088,-0.09664078963679534,-0.035281558121369905,-0.04601942363656919,-0.003067961575771161,-0.007669903939428124,0.11368502061330234,0.04070026003342109,-0.01977130793274827,-0.010942396286917663,,,,,,
10.704657709000003,0.0,0.0,0.11671889372712078,-0.009817477042468103,-0.009817477042468103,-0.0560912990409217,0.0010198418007440308,-0.9984251229284064,1.0,1.0,0.0,-0.0,-0.0,-0.0,-0.0,-0.0,-0.0,0.0,0.0,-0.0,0.0,0.0,0.0,-0.07671776931843206,-0.03799261152744293,-0.004787608981132507,0.10519291460514069,0.0702095702290535,0.17442047595977783,0.36839839816093445,0.3876802623271942,-0.1739182472229004,0.0010718777775764465,-0.041577089577913284,0.0053373705595731735,0.07573982328176498,0.06880339235067368,0.14882272481918335,-0.007054691901430488,0.12097614631056786,0.03467580862343311,-0.02171751670539379,-0.012245416641235352,-0.11576911062002182,-0.044975198805332184,-0.0434795618057251,0.00026796944439411163,-0.00620548240840435,0.12350739119574428,0.03062866162508726,-0.022069061174988747,-0.018644854426383972,-0.007054691901430488,0.12097614631056786,0.03467580862343311,-0.02171751670539379,-0.012245416641235352,-0.11576911062002182,-0.044975198805332184,-0.0434795618057251,0.00026796944439411163,-0.00620548240840435,0.12350739119574428,0.03062866162508726,-0.022069061174988747,-0.018644854426383972,-0.004601942363656963,0.1213549245527309,0.038349519697141066,-0.01380582709097089,-0.012271846303085088,-0.09664078963679534,-0.035281558121369905,-0.04601942363656919,-0.003067961575771161,-0.007669903939428124,0.11521900140118814,0.04070026003342109,-0.01977130793274827,-0.012476377074803022,left_ankle,24,7.2,30,0,0
10.723757468000002,0.0,0.0,0.08726646259971647,-0.004363323129985824,-0.03490658503988659,-0.05710787412190886,-0.0,-0.9983680136669424,1.0,1.0,0.0,-0.0,-0.0,-0.07671776931843206,-0.0,-0.0,-0.0,0.0,0.0,-0.0,0.07671776931843206,0.0,0.0,-0.07671776931843206,-0.03436851501464844,-0.005054611712694168,0.10450296103954315,0.07347697019577026,0.16826048493385315,0.36703863739967346,0.38772204518318176,-0.17248255014419556,0.004651257768273354,-0.040308184921741486,0.00745770800858736,0.07341397553682327,0.07160884141921997,0.14749321341514587,-0.006148667773231864,0.12090939562767744,0.03450332023203373,-0.0209006667137146,-0.013785414397716522,-0.11610905081033707,-0.0449647530913353,-0.04312063753604889,0.0011628144420683384,-0.005888256244361401,0.12403747555799782,0.030047199688851833,-0.021367698907852173,-0.01897723227739334,-0.006148667773231864,0.12090939562767744,0.03450332023203373,-0.0209006667137146,-0.013785414397716522,-0.11610905081033707,-0.0449647530913353,-0.04312063753604889,0.0011628144420683384,-0.005888256244361401,0.12403747555799782,0.030047199688851833,-0.021367698907852173,-0.01897723227739334,-0.004601942363656963,0.1213549245527309,0.038349519697141066,-0.01380582709097089,-0.012271846303085088,-0.09664078963679534,-0.035281558121369905,-0.04601942363656919,-0.003067961575771161,-0.007669903939428124,0.11675298218907394,0.04070026003342109,-0.01977130793274827,-0.014010357862688824,,,,,,
10.744603046000009,0.0,0.0,0.08835729338221293,0.001090830782496456,-0.02399827721492203,-0.057107844427027654,-0.0010197829361969224,-0.998367494536787,1.0,1.0,0.0,-0.0,-0.0,-0.0,-0.0,-0.0,-0.0,0.0,0.0,-0.0,0.07671776931843206,0.0,0.0,0.0,-0.03629912808537483,-0.004081707447767258,0.10182665288448334,0.07498738169670105,0.17067945003509521,0.36655592918395996,0.3864811956882477,-0.17439597845077515,0.0039094481617212296,-0.040332943201065063,0.00691602099686861,0.07438194751739502,0.06997892260551453,0.14686396718025208,-0.006631321040913463,0.12115262169390917,0.033834243193268776,-0.020523063838481903,-0.013180673122406006,-0.11622972786426544,-0.04527496546506882,-0.04359899461269379,0.0009773620404303074,-0.005894445814192295,0.12390205380506814,0.03028919268399477,-0.021775178611278534,-0.01913454383611679,-0.006631321040913463,0.12115262169390917,0.033834243193268776,-0.020523063838481903,-0.013180673122406006,-0.11622972786426544,-0.04527496546506882,-0.04359899461269379,0.0009773620404303074,-0.005894445814192295,0.12390205380506814,0.03028919268399477,-0.021775178611278534,-0.01913454383611679,-0.004601942363656963,0.1213549245527309,0.038349519697141066,-0.01380582709097089,-0.012271846303085088,-0.09664078963679534,-0.035281558121369905,-0.04601942363656919,-0.003067961575771161,-0.007669903939428124,0.11675298218907394,0.04070026003342109,-0.01977130793274827,-0.014010357862688824,,,,,,
10.764306757,0.0,0.0,0.0545415391248228,0.00545415391248228,-0.06654067773228381,-0.057107606869645555,-0.00305933608230244,-0.9983633415246964,1.0,1.0,0.0,-0.0,-0.0,-0.0,-0.07671776931843206,-0.0,-0.0,0.0,0.0,-0.0,0.0,0.0,0.0,0.0,-0.03395233675837517,-0.003632068634033203,0.1017562597990036,0.07863037288188934,0.16315433382987976,0.3655046820640564,0.38403135538101196,-0.18010562658309937,0.005719419568777084,-0.04207543283700943,0.00631219195201993,0.07207763195037842,0.06984731554985046,0.14598584175109863,-0.0060446232091635466,0.12126503139734268,0.03381664492189884,-0.01961231604218483,-0.01506195217370987,-0.11649253964424133,-0.04588742554187775,-0.04502640664577484,0.001429854892194271,-0.006330068223178387,0.12375109654385597,0.02971311379224062,-0.02180808037519455,-0.01935407519340515,-0.0060446232091635466,0.12126503139734268,0.03381664492189884,-0.01961231604218483,-0.01506195217370987,-0.11649253964424133,-0.04588742554187775,-0.04502640664577484,0.001429854892194271,-0.006330068223178387,0.12375109654385597,0.02971311379224062,-0.02180808037519455,-0.01935407519340515,-0.004601942363656963,0.1213549245527309,0.038349519697141066,-0.01380582709097089,-0.01380582709097089,-0.09664078963679534,-0.035281558121369905,-0.04601942363656919,-0.003067961575771161,-0.007669903939428124,0.11675298218907394,0.04070026003342109,-0.01977130793274827,-0.014010357862688824,,,,,,
10.784106655000002,0.0,0.0,0.04145156973486533,-0.002181661564992912,-0.050178215994836975,-0.057107606869645555,-0.00305933608230244,-0.9983633415246964,1.0,1.0,0.0,-0.0,-0.0,-0.07671776931843206,-0.0,-0.0,-0.0,0.0,0.0,-0.07671776931843206,0.0,0.0,0.0,0.0,-0.033946890383958817,-0.0054901838302612305,0.09841407835483551,0.08179932832717896,0.1663171499967575,0.3643827438354492,0.38345760107040405,-0.17824296653270721,0.006614942103624344,-0.04899441450834274,0.007426667958498001,0.07723142951726913,0.07051726430654526,0.14715485274791718,-0.006043261615559459,0.12080050259828568,0.03298109956085682,-0.018820077180862427,-0.014271248131990433,-0.11677302420139313,-0.046030864119529724,-0.044560741633176804,0.001653735525906086,-0.008059813641011715,0.12402971554547548,0.0310015631839633,-0.02164059318602085,-0.019061822444200516,-0.006043261615559459,0.12080050259828568,0.03298109956085682,-0.018820077180862427,-0.014271248131990433,-0.11677302420139313,-0.046030864119529724,-0.044560741633176804,0.001653735525906086,-0.008059813641011715,0.12402971554547548,0.0310015631839633,-0.02164059318602085,-0.019061822444200516,-0.004601942363656963,0.1213549245527309,0.038349519697141066,-0.015339807878856249,-0.01380582709097089,-0.09664078963679534,-0.035281558121369905,-0.04601942363656919,-0.003067961575771161,-0.009203884727313927,0.11675298218907394,0.04070026003342109,-0.01977130793274827,-0.014010357862688824,,,,,,
10.805158253000002,0.0,0.0,0.02399827721492203,0.0,-0.04581489286485115,-0.05710739900936808,-0.004079099929240577,-0.9983597076816312,1.0,1.0,0.0,-0.0,-0.0,-0.0,-0.0,-0.0,-0.0,0.0,0.0,-0.0,0.0,0.0,0.0,0.0,-0.03299184888601303,-0.0037449412047863007,0.09709985554218292,0.08444278687238693,0.16223610937595367,0.3638884425163269,0.38722023367881775,-0.18398921191692352,0.006754681468009949,-0.04802471026778221,0.005368831567466259,0.07637616246938705,0.06845895200967789,0.14719311892986298,-0.005804501241073012,0.12123681325465441,0.03265254385769367,-0.018159212544560432,-0.015291508287191391,-0.1168965995311737,-0.0450902059674263,-0.04599730297923088,0.0016886703670024872,-0.007817387580871582,0.12351525644771755,0.03078774642199278,-0.022155171260237694,-0.019052255898714066,-0.005804501241073012,0.12123681325465441,0.03265254385769367,-0.018159212544560432,-0.015291508287191391,-0.1168965995311737,-0.0450902059674263,-0.04599730297923088,0.0016886703670024872,-0.007817387580871582,0.12351525644771755,0.03078774642199278,-0.022155171260237694,-0.019052255898714066,-0.004601942363656963,0.1213549245527309,0.038349519697141066,-0.015339807878856249,-0.01380582709097089,-0.09664078963679534,-0.035281558121369905,-0.04601942363656919,-0.003067961575771161,-0.009203884727313927,0.11675298218907394,0.04070026003342109,-0.01977130793274827,-0.014010357862688824,right_ankle,14,7.1,30,38,1
10.824361218000007,0.0,0.0,-0.01090830782496456,0.009817477042468103,-0.05781403147231216,-0.05710739900936808,-0.004079099929240577,-0.9983597076816312,1.0,1.0,0.0,-0.0,-0.0,-0.0,-0.0,-0.0,-0.0,0.0,0.0,-0.0,0.07671776931843206,0.0,0.0,0.0,-0.03039686381816864,-0.003893248736858368,0.0940808653831482,0.08834236860275269,0.154575914144516,0.36574283242225647,0.3871527314186096,-0.18310892581939697,0.009828541427850723,-0.049947697669267654,0.0072970264591276646,0.07567495107650757,0.06941910088062286,0.14707012474536896,-0.005155754974111915,0.12119973637163639,0.03189779631793499,-0.017184317111968994,-0.017206557095050812,-0.11643300205469131,-0.04510708153247833,-0.04577723145484924,0.002457135356962681,-0.008298134431242943,0.1239973051706329,0.030612443573772907,-0.02191513404250145,-0.01908300444483757,-0.005155754974111915,0.12119973637163639,0.03189779631793499,-0.017184317111968994,-0.017206557095050812,-0.11643300205469131,-0.04510708153247833,-0.04577723145484924,0.002457135356962681,-0.008298134431242943,0.1239973051706329,0.030612443573772907,-0.02191513404250145,-0.01908300444483757,-0.004601942363656963,0.1213549245527309,0.038349519697141066,-0.015339807878856249,-0.01380582709097089,-0.09664078963679534,-0.035281558121369905,-0.04601942363656919,-0.003067961575771161,-0.009203884727313927,0.1182869629769593,0.04070026003342109,-0.01977130793274827,-0.014010357862688824,,,,,,
10.84433371,0.0,0.0,-0.02181661564992912,0.001090830782496456,-0.028361600344907856,-0.05710739900936808,-0.004079099929240577,-0.9983597076816312,1.0,1.0,0.0,-0.0,-0.0,-0.0,-0.0,-0.0,-0.0,0.0,0.0,-0.0,0.0,0.0,0.0,0.0,-0.030385978519916534,-0.002736244350671768,0.09195804595947266,0.09344830363988876,0.15465393662452698,0.3647804856300354,0.38423779606819153,-0.184153750538826,0.009201142936944962,-0.050896164029836655,0.006168071646243334,0.07609842717647552,0.06976087391376495,0.149782195687294,-0.005153033649548888,0.12148898746818304,0.031367091462016106,-0.015907833352684975,-0.017187051475048065,-0.11667358875274658,-0.045835815370082855,-0.0460384376347065,0.0023002857342362404,-0.008535251021385193,0.12371506646741182,0.030718312598764896,-0.021829690784215927,-0.018404986709356308,-0.005153033649548888,0.12148898746818304,0.031367091462016106,-0.015907833352684975,-0.017187051475048065,-0.11667358875274658,-0.045835815370082855,-0.0460384376347065,0.0023002857342362404,-0.008535251021385193,0.12371506646741182,0.030718312598764896,-0.021829690784215927,-0.018404986709356308,-0.004601942363656963,0.1213549245527309,0.038349519697141066,-0.015339807878856249,-0.01380582709097089,-0.09664078963679534,-0.035281558121369905,-0.04601942363656919,-0.003067961575771161,-0.009203884727313927,0.1182869629769593,0.04070026003342109,-0.01977130793274827,-0.014010357862688824,,,,,,
10.864465686000003,0.0,0.0,-0.03599741582238305,-0.002181661564992912,0.006544984694978736,-0.057107606869645555,-0.00305933608230244,-0.9983633415246964,1.0,1.0,0.0,-0.0,-0.0,-0.0,-0.0,-0.0,-0.0,0.0,0.0,-0.0,0.0,0.0,0.0,0.0,-0.029305774718523026,-0.003000684082508087,0.09029485285282135,0.09733310341835022,0.15148551762104034,0.3657535910606384,0.3859374523162842,-0.1821058690547943,0.009890854358673096,-0.05226117745041847,0.005750847049057484,0.07741139084100723,0.07019028812646866,0.1507989764213562,-0.004882982699200511,0.12142287753522396,0.03095129318535328,-0.01493663340806961,-0.017979156225919724,-0.11643031239509583,-0.04541090130805969,-0.04552646726369858,0.002472713589668274,-0.008876504376530647,0.12361076031811535,0.031046553514897823,-0.02172233723104,-0.01815079152584076,-0.004882982699200511,0.12142287753522396,0.03095129318535328,-0.01493663340806961,-0.017979156225919724,-0.11643031239509583,-0.04541090130805969,-0.04552646726369858,0.002472713589668274,-0.008876504376530647,0.12361076031811535,0.031046553514897823,-0.02172233723104,-0.01815079152584076,-0.004601942363656963,0.1213549245527309,0.038349519697141066,-0.01380582709097089,-0.01380582709097089,-0.09664078963679534,-0.035281558121369905,-0.04601942363656919,-0.003067961575771161,-0.009203884727313927,0.1182869629769593,0.04070026003342109,-0.01977130793274827,-0.014010357862688824,,,,,,
10.884553161,0.0,0.0,-0.055632369907319255,0.001090830782496456,0.008726646259971648,-0.057107606869645555,-0.00305933608230244,-0.9983633415246964,1.0,1.0,0.0,-0.0,-0.0,0.07671776931843206,-0.0,-0.0,-0.0,0.0,0.0,-0.0,0.0,0.0,0.0,0.0,-0.028184248134493828,-0.002002168446779251,0.08814585208892822,0.10061826556921005,0.14803563058376312,0.3662557005882263,0.386473685503006,-0.18303143978118896,0.010765660554170609,-0.05320791155099869,0.004925196524709463,0.07764293998479843,0.06991125643253326,0.1515050083398819,-0.0046026010531932116,0.12167250644415617,0.030414042994379997,-0.014115342870354652,-0.01884162798523903,-0.11630478501319885,-0.04527684301137924,-0.04575785994529724,0.002691415138542652,-0.009113187901675701,0.12340434768702835,0.031104440800845623,-0.02179209515452385,-0.017974283546209335,-0.0046026010531932116,0.12167250644415617,0.030414042994379997,-0.014115342870354652,-0.01884162798523903,-0.11630478501319885,-0.04527684301137924,-0.04575785994529724,0.002691415138542652,-0.009113187901675701,0.12340434768702835,0.031104440800845623,-0.02179209515452385,-0.017974283546209335,-0.004601942363656963,0.1213549245527309,0.038349519697141066,-0.01380582709097089,-0.01380582709097089,-0.09664078963679534,-0.035281558121369905,-0.04601942363656919,-0.003067961575771161,-0.009203884727313927,0.1182869629769593,0.04070026003342109,-0.01977130793274827,-0.014010357862688824,,,,,,
10.905501851000011,0.0,0.0,-0.061086523819801536,0.00545415391248228,0.030543261909900768,-0.0560912990409217,-0.0010198418007440308,-0.9984251229284064,1.0,1.0,0.0,-0.0,-0.0,-0.0,-0.0,-0.0,-0.0,0.0,0.0,-0.0,0.0,0.0,0.0,0.0,-0.026248052716255188,-0.0013032183051109314,0.08715365827083588,0.1023838073015213,0.14382131397724152,0.3676830232143402,0.38634830713272095,-0.18229243159294128,0.011028479784727097,-0.05308185890316963,0.0040724026039242744,0.0760202556848526,0.070695661008358,0.15129104256629944,-0.004118552198633552,0.12184724397957325,0.03016599453985691,-0.01367395743727684,-0.01989520713686943,-0.11594795435667038,-0.0453081876039505,-0.04557310789823532,0.002757119946181774,-0.009081674739718437,0.12319114920683205,0.030698769725859165,-0.021595994010567665,-0.01802777498960495,-0.004118552198633552,0.12184724397957325,0.03016599453985691,-0.01367395743727684,-0.01989520713686943,-0.11594795435667038,-0.0453081876039505,-0.04557310789823532,0.002757119946181774,-0.009081674739718437,0.12319114920683205,0.030698769725859165,-0.021595994010567665,-0.01802777498960495,-0.004601942363656963,0.1213549245527309,0.038349519697141066,-0.01380582709097089,-0.01380582709097089,-0.09664078963679534,-0.035281558121369905,-0.04601942363656919,-0.003067961575771161,-0.009203884727313927,0.1182869629769593,0.04070026003342109,-0.01977130793274827,-0.014010357862688824,left_hip_pitch,22,7.2,31,1070,2
10.924572536,0.0,0.0,-0.0719948316447661,-0.00545415391248228,0.05345070834232634,-0.05609132821058785,-0.0,-0.9984256421484637,1.0,1.0,0.0,-0.0,-0.0,-0.0,-0.0,-0.0,-0.0,0.0,0.0,-0.0,0.0,0.0,0.0,0.0,-0.02714548632502556,-0.001802600920200348,0.0855884850025177,0.10541877895593643,0.14532938599586487,0.3666526973247528,0.38582438230514526,-0.1824362576007843,0.010773424059152603,-0.05475706607103348,0.003791330847889185,0.07863081991672516,0.07138916850090027,0.15358948707580566,-0.004342910600826144,0.1217223983258009,0.029774701222777367,-0.012915214523673058,-0.019518189132213593,-0.11620553582906723,-0.04543916881084442,-0.045609064400196075,0.002693356014788151,-0.009500476531684399,0.12312088126782328,0.031351410783827305,-0.0214226171374321,-0.017453163862228394,-0.004342910600826144,0.1217223983258009,0.029774701222777367,-0.012915214523673058,-0.019518189132213593,-0.11620553582906723,-0.04543916881084442,-0.045609064400196075,0.002693356014788151,-0.009500476531684399,0.12312088126782328,0.031351410783827305,-0.0214226171374321,-0.017453163862228394,-0.004601942363656963,0.1213549245527309,0.038349519697141066,-0.01380582709097089,-0.01380582709097089,-0.09664078963679534,-0.035281558121369905,-0.04601942363656919,-0.003067961575771161,-0.009203884727313927,0.1182869629769593,0.04070026003342109,-0.01977130793274827,-0.014010357862688824,,,,,,
10.944710307999998,0.0,0.0,-0.07635815477475191,-0.006544984694978736,0.04799655442984406,-0.05609132821058785,-0.0,-0.9984256421484637,1.0,1.0,0.0,-0.0,-0.0,-0.0,-0.0,-0.0,-0.0,0.0,0.0,-0.0,0.0,0.0,0.0,0.0,-0.02647349052131176,-0.0014572888612747192,0.0851978063583374,0.10656065493822098,0.14417901635169983,0.3667151927947998,0.38589221239089966,-0.18318913877010345,0.01098727062344551,-0.05497895926237106,0.003471758682280779,0.07864148914813995,0.07098018378019333,0.15440891683101654,-0.004174911649897695,0.1218087263405323,0.029677031561732292,-0.012629745528101921,-0.019805781543254852,-0.11618991196155548,-0.04542221128940582,-0.045797284692525864,0.0027468176558613777,-0.009555949829518795,0.12304098822642118,0.031354078091681004,-0.021524863317608833,-0.017248306423425674,-0.004174911649897695,0.1218087263405323,0.029677031561732292,-0.012629745528101921,-0.019805781543254852,-0.11618991196155548,-0.04542221128940582,-0.045797284692525864,0.0027468176558613777,-0.009555949829518795,0.12304098822642118,0.031354078091681004,-0.021524863317608833,-0.017248306423425674,-0.004601942363656963,0.1213549245527309,0.038349519697141066,-0.01380582709097089,-0.01380582709097089,-0.09664078963679534,-0.035281558121369905,-0.04601942363656919,-0.003067961575771161,-0.009203884727313927,0.1182869629769593,0.04070026003342109,-0.01977130793274827,-0.014010357862688824,,,,,,
10.96469852300001,0.0,0.0,-0.06981317007977318,0.001090830782496456,0.014180800172453928,-0.05710775534266195,0.0020395626908093554,-0.9983659371511795,1.0,1.0,0.0,-0.0,-0.0,-0.0,0.07671776931843206,-0.0,-0.0,0.0,0.0,-0.0,0.0,0.0,0.0,0.07671776931843206,-0.02723238244652748,-0.0006636790931224823,0.08443060517311096,0.10390184819698334,0.14338018000125885,0.3694567084312439,0.3879278600215912,-0.184088796377182,0.011092208325862885,-0.05433943122625351,0.0033716452307999134,0.0751243308186531,0.0699945017695427,0.15394791960716248,-0.004364634631201625,0.12200712878257036,0.029485231265425682,-0.013294447213411331,-0.020005490630865097,-0.11550453305244446,-0.04491329938173294,-0.0460221990942955,0.002773052081465721,-0.009396067820489407,0.12301595986355096,0.030474788509309292,-0.021771283820271492,-0.01736355572938919,-0.004364634631201625,0.12200712878257036,0.029485231265425682,-0.013294447213411331,-0.020005490630865097,-0.11550453305244446,-0.04491329938173294,-0.0460221990942955,0.002773052081465721,-0.009396067820489407,0.12301595986355096,0.030474788509309292,-0.021771283820271492,-0.01736355572938919,-0.004601942363656963,0.1213549245527309,0.038349519697141066,-0.01380582709097089,-0.012271846303085088,-0.09664078963679534,-0.035281558121369905,-0.04601942363656919,-0.003067961575771161,-0.009203884727313927,0.1182869629769593,0.04070026003342109,-0.01977130793274827,-0.012476377074803022,,,,,,
10.984928519000007,0.0,0.0,-0.06326818538479445,0.001090830782496456,0.02945243112740431,-0.057107606869645555,0.00305933608230244,-0.9983633415246964,1.0,1.0,0.0,-0.0,-0.0,-0.0,-0.0,-0.0,-0.0,0.0,0.0,-0.0,0.0,0.0,0.0,0.0,-0.027581622824072838,-0.0006051100790500641,0.08535081148147583,0.102662093937397,0.14038825035095215,0.36882901191711426,0.3886261284351349,-0.1859796941280365,0.010249879211187363,-0.054560184478759766,0.0025543360970914364,0.07425504177808762,0.07038510590791702,0.1490674465894699,-0.004451944725587964,0.12202177103608847,0.0297152828425169,-0.013604385778307915,-0.020753473043441772,-0.11566145718097687,-0.044738732278347015,-0.046494923532009125,0.0025624698027968407,-0.00945125613361597,0.12281163258012384,0.03025746624916792,-0.02167363278567791,-0.018583673983812332,-0.004451944725587964,0.12202177103608847,0.0297152828425169,-0.013604385778307915,-0.020753473043441772,-0.11566145718097687,-0.044738732278347015,-0.046494923532009125,0.0025624698027968407,-0.00945125613361597,0.12281163258012384,0.03025746624916792,-0.02167363278567791,-0.018583673983812332,-0.004601942363656963,0.1213549245527309,0.038349519697141066,-0.01380582709097089,-0.012271846303085088,-0.09664078963679534,-0.035281558121369905,-0.04601942363656919,-0.003067961575771161,-0.009203884727313927,0.1182869629769593,0.04070026003342109,-0.01977130793274827,-0.012476377074803022,,,,,,
11.00580522700001,0.0,0.0,-0.0545415391248228,-0.004363323129985824,0.01090830782496456,-0.057107131763774945,0.0050988510503370485,-0.998355035655994,1.0,1.0,0.0,-0.0,-0.0,0.07671776931843206,-0.0,-0.0,-0.0,0.0,0.0,-0.0,0.0,0.0,0.0,0.0,-0.028001563623547554,-0.001884356141090393,0.08697676658630371,0.10280171036720276,0.14460094273090363,0.36864230036735535,0.388323038816452,-0.18404914438724518,0.010510101914405823,-0.053768716752529144,0.0037644226104021072,0.073170006275177,0.07314072549343109,0.15379220247268677,-0.004556929925456643,0.12170195952057838,0.03012177161872387,-0.013569481670856476,-0.019700299948453903,-0.1157081350684166,-0.04481450468301773,-0.046012286096811295,0.0026275254786014557,-0.009253389202058315,0.12311415420845151,0.029986207373440266,-0.020984727889299393,-0.017402485013008118,-0.004556929925456643,0.12170195952057838,0.03012177161872387,-0.013569481670856476,-0.019700299948453903,-0.1157081350684166,-0.04481450468301773,-0.046012286096811295,0.0026275254786014557,-0.009253389202058315,0.12311415420845151,0.029986207373440266,-0.020984727889299393,-0.017402485013008118,-0.004601942363656963,0.1213549245527309,0.038349519697141066,-0.012271846303085088,-0.012271846303085088,-0.09664078963679534,-0.035281558121369905,-0.04601942363656919,-0.003067961575771161,-0.009203884727313927,0.1182869629769593,0.04070026003342109,-0.01977130793274827,-0.012476377074803022,right_hip_pitch,12,7.2,32,61,2
11.024900134000006,0.0,0.0,-0.039269908169872414,0.002181661564992912,-0.008726646259971648,-0.05710680513536734,0.006118586264503643,-0.9983493254915111,1.0,1.0,0.0,-0.0,-0.0,0.07671776931843206,-0.0,-0.0,-0.0,0.0,0.0,-0.0,0.0,0.0,0.0,0.0,-0.027329690754413605,-0.0016572698950767517,0.08899420499801636,0.10059715807437897,0.14298617839813232,0.3699673116207123,0.38857707381248474,-0.18314051628112793,0.010503709316253662,-0.05230205878615379,0.003914307337254286,0.06960022449493408,0.07402339577674866,0.15197283029556274,-0.004388961708173156,0.1217587310820818,0.03062613122165203,-0.014120619744062424,-0.02010399103164673,-0.11537688225507736,-0.04475099593400955,-0.04578512907028198,0.0026259273290634155,-0.008886724710464478,0.12315162539016455,0.029093761928379536,-0.02076406031847,-0.017857328057289124,-0.004388961708173156,0.1217587310820818,0.03062613122165203,-0.014120619744062424,-0.02010399103164673,-0.11537688225507736,-0.04475099593400955,-0.04578512907028198,0.0026259273290634155,-0.008886724710464478,0.12315162539016455,0.029093761928379536,-0.02076406031847,-0.017857328057289124,-0.004601942363656963,0.1213549245527309,0.038349519697141066,-0.010737865515199285,-0.012271846303085088,-0.09664078963679534,-0.035281558121369905,-0.04601942363656919,-0.003067961575771161,-0.009203884727313927,0.1182869629769593,0.04070026003342109,-0.01977130793274827,-0.012476377074803022,,,,,,
11.04504394300001,0.0,0.0,-0.032724923474893676,0.0,-0.025089107997418487,-0.05710680513536734,0.006118586264503643,-0.9983493254915111,1.0,1.0,0.0,-0.0,-0.0,0.07671776931843206,-0.0,-0.0,-0.0,0.0,0.0,-0.0,0.0,0.0,0.0,0.0,-0.028369642794132233,-0.0023109838366508484,0.09026950597763062,0.10085465013980865,0.1432819664478302,0.370516300201416,0.3889985978603363,-0.18275150656700134,0.010860614478588104,-0.051662176847457886,0.004632999654859304,0.0680382251739502,0.075269415974617,0.1517099291086197,-0.004648949718102813,0.12159530259668827,0.030944956466555595,-0.014056246727705002,-0.02003004401922226,-0.11523963510990143,-0.04464561492204666,-0.045687876641750336,0.002715153619647026,-0.0087267542257905,0.12333129846956581,0.028703262098133564,-0.020452555269002914,-0.017923053354024887,-0.004648949718102813,0.12159530259668827,0.030944956466555595,-0.014056246727705002,-0.02003004401922226,-0.11523963510990143,-0.04464561492204666,-0.045687876641750336,0.002715153619647026,-0.0087267542257905,0.12333129846956581,0.028703262098133564,-0.020452555269002914,-0.017923053354024887,-0.004601942363656963,0.1213549245527309,0.038349519697141066,-0.007669903939428124,-0.012271846303085088,-0.09664078963679534,-0.035281558121369905,-0.04601942363656919,-0.003067961575771161,-0.009203884727313927,0.1182869629769593,0.04070026003342109,-0.01977130793274827,-0.012476377074803022,,,,,,
11.065097030000004,0.0,0.0,-0.02399827721492203,0.0,-0.02399827721492203,-0.057106419127202095,0.007138302390900262,-0.9983425772416223,1.0,1.0,0.0,-0.0,-0.0,0.07671776931843206,-0.0,-0.0,-0.0,0.0,0.0,-0.0,0.0,0.0,0.0,0.0,-0.0287588220089674,-0.0025498531758785248,0.09106308221817017,0.0996045470237732,0.14402881264686584,0.37058186531066895,0.388978511095047,-0.1825633943080902,0.010455992072820663,-0.05129597336053848,0.004710066132247448,0.06733602285385132,0.07602206617593765,0.15091060101985931,-0.0047462445218116045,0.12153558526188135,0.031143350526690483,-0.014368772506713867,-0.01984333246946335,-0.1152232438325882,-0.04465063661336899,-0.04564084857702255,0.002613998018205166,-0.00863520335406065,0.12335056508891284,0.028527711518108845,-0.020264392718672752,-0.01812288537621498,-0.0047462445218116045,0.12153558526188135,0.031143350526690483,-0.014368772506713867,-0.01984333246946335,-0.1152232438325882,-0.04465063661336899,-0.04564084857702255,0.002613998018205166,-0.00863520335406065,0.12335056508891284,0.028527711518108845,-0.020264392718672752,-0.01812288537621498,-0.004601942363656963,0.1213549245527309,0.038349519697141066,-0.007669903939428124,-0.012271846303085088,-0.09664078963679534,-0.035281558121369905,-0.04601942363656919,-0.003067961575771161,-0.009203884727313927,0.1182869629769593,0.04070026003342109,-0.01977130793274827,-0.012476377074803022,,,,,,
11.085229024,0.0,0.0,-0.014180800172453928,-0.002181661564992912,-0.02945243112740431,-0.057106419127202095,0.007138302390900262,-0.9983425772416223,1.0,1.0,0.07671776931843206,-0.0,-0.0,-0.0,-0.0,-0.0,-0.0,0.0,0.0,-0.0,0.0,0.0,0.0,0.0,-0.02463575452566147,-0.0029936470091342926,0.09286704659461975,0.09840016812086105,0.1443294882774353,0.3705221712589264,0.3885560631752014,-0.18225476145744324,0.010458037257194519,-0.05075201764702797,0.005103865172713995,0.06590008735656738,0.07649686932563782,0.1509600728750229,-0.0037154776509851217,0.12142463680356741,0.03159434162080288,-0.014669867232441902,-0.019768163561820984,-0.11523816734552383,-0.04475624859333038,-0.04556369036436081,0.0026145093142986298,-0.008499214425683022,0.12344901484902948,0.02816872764378786,-0.02014569193124771,-0.018110517412424088,-0.0037154776509851217,0.12142463680356741,0.03159434162080288,-0.014669867232441902,-0.019768163561820984,-0.11523816734552383,-0.04475624859333038,-0.04556369036436081,0.0026145093142986298,-0.008499214425683022,0.12344901484902948,0.02816872764378786,-0.02014569193124771,-0.018110517412424088,-0.003067961575771161,0.1213549245527309,0.038349519697141066,-0.007669903939428124,-0.012271846303085088,-0.09664078963679534,-0.035281558121369905,-0.04601942363656919,-0.003067961575771161,-0.009203884727313927,0.1182869629769593,0.04070026003342109,-0.01977130793274827,-0.012476377074803022,,,,,,
11.106153973000005,0.0,0.0,0.001090830782496456,-0.003272492347489368,-0.02945243112740431,-0.057106419127202095,0.007138302390900262,-0.9983425772416223,1.0,1.0,0.0,-0.0,-0.0,-0.0,-0.0,-0.0,-0.0,0.0,0.0,-0.0,0.0,0.0,0.0,0.0,-0.027167176827788353,-0.003808163106441498,0.09324482083320618,0.09572470933198929,0.1487429291009903,0.3686129152774811,0.3902841806411743,-0.17913538217544556,0.0093461275100708,-0.05127044394612312,0.005598988849669695,0.06845559179782867,0.0757877379655838,0.15005773305892944,-0.004348333226516843,0.12122100777924061,0.031688785180449486,-0.015338731929659843,-0.018664803355932236,-0.11571548134088516,-0.04432421922683716,-0.04478384554386139,0.0023365318775177,-0.00862882100045681,0.1235727957682684,0.028807603754103184,-0.020322974771261215,-0.01833610236644745,-0.004348333226516843,0.12122100777924061,0.031688785180449486,-0.015338731929659843,-0.018664803355932236,-0.11571548134088516,-0.04432421922683716,-0.04478384554386139,0.0023365318775177,-0.00862882100045681,0.1235727957682684,0.028807603754103184,-0.020322974771261215,-0.01833610236644745,-0.003067961575771161,0.1213549245527309,0.038349519697141066,-0.007669903939428124,-0.012271846303085088,-0.09664078963679534,-0.035281558121369905,-0.04601942363656919,-0.003067961575771161,-0.009203884727313927,0.1182869629769593,0.04070026003342109,-0.01977130793274827,-0.012476377074803022,left_knee,23,7.2,30,1062,1
11.125353122000007,0.0,0.0,0.013089969389957472,-0.007635815477475192,-0.013089969389957472,-0.057106419127202095,0.007138302390900262,-0.9983425772416223,1.0,1.0,0.0,-0.0,-0.0,-0.0,-0.0,-0.0,-0.0,0.0,0.0,-0.0,0.0,0.0,0.0,0.0,-0.027094701305031776,-0.004182800650596619,0.0947137176990509,0.0945180207490921,0.15074340999126434,0.3688427805900574,0.38990700244903564,-0.18024194240570068,0.008219491690397263,-0.04967128112912178,0.0062321508303284645,0.06793909519910812,0.07532040029764175,0.15024477243423462,-0.004330214345827699,0.12112734839320183,0.03205600939691067,-0.01564040407538414,-0.018164683133363724,-0.11565801501274109,-0.044418513774871826,-0.04506048560142517,0.0020548729225993156,-0.008229030296206474,0.1237310862634331,0.028678479604423046,-0.020439809188246727,-0.018289342522621155,-0.004330214345827699,0.12112734839320183,0.03205600939691067,-0.01564040407538414,-0.018164683133363724,-0.11565801501274109,-0.044418513774871826,-0.04506048560142517,0.0020548729225993156,-0.008229030296206474,0.1237310862634331,0.028678479604423046,-0.020439809188246727,-0.018289342522621155,-0.003067961575771161,0.1213549245527309,0.038349519697141066,-0.007669903939428124,-0.012271846303085088,-0.09664078963679534,-0.035281558121369905,-0.04601942363656919,-0.003067961575771161,-0.009203884727313927,0.1182869629769593,0.04070026003342109,-0.01977130793274827,-0.012476377074803022,,,,,,
11.145399912000002,0.0,0.0,0.02399827721492203,-0.006544984694978736,-0.004363323129985824,-0.057106419127202095,0.007138302390900262,-0.9983425772416223,1.0,1.0,0.0,-0.0,-0.0,-0.0,-0.0,-0.0,-0.0,0.0,0.0,-0.0,0.0,0.0,0.0,0.0,-0.027813471853733063,-0.004431914538145065,0.09540599584579468,0.092706099152565,0.15221863985061646,0.36905547976493835,0.38998013734817505,-0.1791180521249771,0.0074067264795303345,-0.04910990595817566,0.006584254093468189,0.06820162385702133,0.07488228380680084,0.1492205709218979,-0.00450990698300302,0.12106506992131472,0.03222907893359661,-0.016093384474515915,-0.017795875668525696,-0.11560484021902084,-0.044400230050086975,-0.04477951303124428,0.0018516816198825836,-0.008088686503469944,0.12381911207921803,0.028744111768901348,-0.020549338310956955,-0.018545392900705338,-0.00450990698300302,0.12106506992131472,0.03222907893359661,-0.016093384474515915,-0.017795875668525696,-0.11560484021902084,-0.044400230050086975,-0.04477951303124428,0.0018516816198825836,-0.008088686503469944,0.12381911207921803,0.028744111768901348,-0.020549338310956955,-0.018545392900705338,-0.003067961575771161,0.1213549245527309,0.038349519697141066,-0.007669903939428124,-0.012271846303085088,-0.09664078963679534,-0.035281558121369905,-0.04601942363656919,-0.003067961575771161,-0.009203884727313927,0.1182869629769593,0.04070026003342109,-0.01977130793274827,-0.012476377074803022,,,,,,
11.165388200999999,0.0,0.0,0.0272707695624114,-0.006544984694978736,-0.002181661564992912,-0.05710680513536734,0.006118586264503643,-0.9983493254915111,1.0,1.0,0.0,-0.0,-0.0,-0.0,-0.0,-0.0,-0.0,0.0,0.0,-0.0,0.0,0.0,0.0,0.0,-0.028146987780928612,-0.004528522491455078,0.09572663903236389,0.09189492464065552,0.15312476456165314,0.3690369129180908,0.3901122212409973,-0.17850957810878754,0.007127057760953903,-0.048745911568403244,0.006940783932805061,0.06852395087480545,0.07446437329053879,0.14881765842437744,-0.0045932859648019075,0.12104091793298721,0.032309239730238914,-0.016296178102493286,-0.017569344490766525,-0.11560948193073273,-0.04436720907688141,-0.044627394527196884,0.0017817644402384758,-0.00799768790602684,0.12390824453905225,0.028824693523347378,-0.02065381594002247,-0.01864612102508545,-0.0045932859648019075,0.12104091793298721,0.032309239730238914,-0.016296178102493286,-0.017569344490766525,-0.11560948193073273,-0.04436720907688141,-0.044627394527196884,0.0017817644402384758,-0.00799768790602684,0.12390824453905225,0.028824693523347378,-0.02065381594002247,-0.01864612102508545,-0.003067961575771161,0.1213549245527309,0.038349519697141066,-0.007669903939428124,-0.012271846303085088,-0.09664078963679534,-0.035281558121369905,-0.04601942363656919,-0.003067961575771161,-0.009203884727313927,0.1182869629769593,0.04070026003342109,-0.01977130793274827,-0.012476377074803022,,,,,,
11.185809329000008,0.0,0.0,0.0272707695624114,-0.004363323129985824,0.02181661564992912,-0.05710680513536734,0.006118586264503643,-0.9983493254915111,1.0,1.0,0.0,-0.0,-0.0,-0.0,-0.0,-0.0,-0.0,0.0,0.0,-0.0,0.0,0.0,0.0,0.0,-0.028367972001433372,-0.00426870584487915,0.09531481564044952,0.09166748821735382,0.15310606360435486,0.36930251121520996,0.3903733491897583,-0.1776965856552124,0.006537608802318573,-0.04864120855927467,0.00669057946652174,0.06890429556369781,0.07383223623037338,0.1484258472919464,-0.004648532019928098,0.1211058720946312,0.03220628388226032,-0.01635303720831871,-0.017574019730091095,-0.11554308235645294,-0.04430192708969116,-0.0444241464138031,0.0016344022005796432,-0.007971512153744698,0.12384569342248142,0.02891977969557047,-0.02081185020506382,-0.018744073808193207,-0.004648532019928098,0.1211058720946312,0.03220628388226032,-0.01635303720831871,-0.017574019730091095,-0.11554308235645294,-0.04430192708969116,-0.0444241464138031,0.0016344022005796432,-0.007971512153744698,0.12384569342248142,0.02891977969557047,-0.02081185020506382,-0.018744073808193207,-0.003067961575771161,0.1213549245527309,0.038349519697141066,-0.007669903939428124,-0.012271846303085088,-0.09664078963679534,-0.035281558121369905,-0.04601942363656919,-0.003067961575771161,-0.009203884727313927,0.1182869629769593,0.04070026003342109,-0.01977130793274827,-0.012476377074803022,,,,,,
11.206569868000003,0.0,0.0,0.020725784867432664,-0.003272492347489368,0.017453292519943295,-0.056090598982586407,0.0050991453620533094,-0.9984126618900381,1.0,1.0,0.0,-0.0,-0.0,-0.0,-0.0,-0.0,-0.0,0.0,0.0,-0.0,0.0,0.0,0.0,0.0,-0.028075365349650383,-0.004121236503124237,0.09451033174991608,0.0920838862657547,0.15233604609966278,0.3701319694519043,0.3904651403427124,-0.17830179631710052,0.0068455226719379425,-0.04847420006990433,0.006803666241466999,0.0690724104642868,0.07298163324594498,0.148441880941391,-0.00457538035698235,0.12114273943006992,0.03200516290962696,-0.01624893769621849,-0.017766524106264114,-0.11533571779727936,-0.04427897930145264,-0.04457544907927513,0.0017113806679844856,-0.007929760031402111,0.12387396511621773,0.028961808420717716,-0.02102450095117092,-0.018740065395832062,-0.00457538035698235,0.12114273943006992,0.03200516290962696,-0.01624893769621849,-0.017766524106264114,-0.11533571779727936,-0.04427897930145264,-0.04457544907927513,0.0017113806679844856,-0.007929760031402111,0.12387396511621773,0.028961808420717716,-0.02102450095117092,-0.018740065395832062,-0.003067961575771161,0.1213549245527309,0.038349519697141066,-0.007669903939428124,-0.012271846303085088,-0.09664078963679534,-0.035281558121369905,-0.04601942363656919,-0.003067961575771161,-0.009203884727313927,0.1182869629769593,0.04070026003342109,-0.01977130793274827,-0.012476377074803022,right_knee,13,7.2,30,0,0
11.22560251600001,0.0,0.0,0.019634954084936207,0.003272492347489368,0.011999138607461015,-0.056090598982586407,0.0050991453620533094,-0.9984126618900381,1.0,1.0,0.0,-0.0,-0.0,-0.0,-0.0,-0.0,-0.0,0.0,0.0,-0.0,0.0,0.0,0.0,0.0,-0.027969351038336754,-0.00375351682305336,0.09407079219818115,0.09187352657318115,0.1511911153793335,0.3709786534309387,0.3905990719795227,-0.17874149978160858,0.007156088948249817,-0.04827127978205681,0.006716911680996418,0.06886418908834457,0.07228211313486099,0.14760050177574158,-0.004548876779153943,0.12123466935008764,0.03189527802169323,-0.016301527619361877,-0.018052756786346436,-0.11512404680252075,-0.04424549639225006,-0.044685374945402145,0.0017890222370624542,-0.007879029959440231,0.12385227647610009,0.02890975307673216,-0.021199380978941917,-0.018950410187244415,-0.004548876779153943,0.12123466935008764,0.03189527802169323,-0.016301527619361877,-0.018052756786346436,-0.11512404680252075,-0.04424549639225006,-0.044685374945402145,0.0017890222370624542,-0.007879029959440231,0.12385227647610009,0.02890975307673216,-0.021199380978941917,-0.018950410187244415,-0.003067961575771161,0.1213549245527309,0.038349519697141066,-0.007669903939428124,-0.012271846303085088,-0.09664078963679534,-0.035281558121369905,-0.04601942363656919,-0.003067961575771161,-0.009203884727313927,0.1182869629769593,0.04070026003342109,-0.01977130793274827,-0.012476377074803022,,,,,,
11.245700473,0.0,0.0,0.020725784867432664,0.004363323129985824,0.01090830782496456,-0.056090598982586407,0.0050991453620533094,-0.9984126618900381,1.0,1.0,0.0,-0.0,-0.0,-0.0,-0.0,-0.0,-0.0,0.0,0.0,-0.0,0.0,0.0,0.0,0.0,-0.02803030051290989,-0.0037780776619911194,0.09406150877475739,0.09184696525335312,0.1511048674583435,0.37116551399230957,0.3905358910560608,-0.17872777581214905,0.007254868745803833,-0.048185795545578,0.006803165189921856,0.06893995404243469,0.0722178965806961,0.1473611444234848,-0.004564114147797227,0.1212285291403532,0.03189295716583729,-0.016308167949318886,-0.018074318766593933,-0.11507733166217804,-0.04426129162311554,-0.04468194395303726,0.0018137171864509583,-0.00785765890032053,0.12387383985333145,0.028928694315254688,-0.02121543511748314,-0.01901024952530861,-0.004564114147797227,0.1212285291403532,0.03189295716583729,-0.016308167949318886,-0.018074318766593933,-0.11507733166217804,-0.04426129162311554,-0.04468194395303726,0.0018137171864509583,-0.00785765890032053,0.12387383985333145,0.028928694315254688,-0.02121543511748314,-0.01901024952530861,-0.003067961575771161,0.1213549245527309,0.038349519697141066,-0.007669903939428124,-0.012271846303085088,-0.09664078963679534,-0.035281558121369905,-0.04601942363656919,-0.003067961575771161,-0.009203884727313927,0.1182869629769593,0.04070026003342109,-0.01977130793274827,-0.012476377074803022,,,,,,
11.265745059000011,0.0,0.0,0.017453292519943295,-0.002181661564992912,0.001090830782496456,-0.056090861501390456,0.004079335381919306,-0.9984173347247501,1.0,1.0,0.0,-0.0,-0.0,-0.0,-0.0,-0.0,-0.0,0.0,0.0,-0.0,0.0,0.0,0.0,0.0,-0.027964014559984207,-0.004016801714897156,0.0942249447107315,0.09278075397014618,0.15185987949371338,0.3704463839530945,0.3902261257171631,-0.17889070510864258,0.007615000009536743,-0.04853183403611183,0.007071035448461771,0.06937260925769806,0.07259021699428558,0.14840488135814667,-0.004547542659565806,0.1211688481271267,0.03193381614983082,-0.01607472077012062,-0.017885565757751465,-0.11525711417198181,-0.044338732957839966,-0.044722676277160645,0.0019037500023841858,-0.007944168522953987,0.12394080741796643,0.02903685811907053,-0.02112235501408577,-0.018749315291643143,-0.004547542659565806,0.1211688481271267,0.03193381614983082,-0.01607472077012062,-0.017885565757751465,-0.11525711417198181,-0.044338732957839966,-0.044722676277160645,0.0019037500023841858,-0.007944168522953987,0.12394080741796643,0.02903685811907053,-0.02112235501408577,-0.018749315291643143,-0.003067961575771161,0.1213549245527309,0.038349519697141066,-0.007669903939428124,-0.012271846303085088,-0.09664078963679534,-0.035281558121369905,-0.04601942363656919,-0.003067961575771161,-0.009203884727313927,0.1182869629769593,0.04070026003342109,-0.01977130793274827,-0.012476377074803022,,,,,,
11.28583251500001,0.0,0.0,0.007635815477475192,0.0,-0.00545415391248228,-0.056090861501390456,0.004079335381919306,-0.9984173347247501,1.0,1.0,0.0,-0.0,-0.0,-0.0,-0.0,-0.0,-0.0,0.0,0.0,-0.0,0.0,0.0,0.0,0.0,-0.02753656730055809,-0.0035581067204475403,0.09357494115829468,0.09347054362297058,0.15050247311592102,0.3707665503025055,0.3901546001434326,-0.17997759580612183,0.00817110762000084,-0.0489068329334259,0.006628388538956642,0.06895501166582108,0.07236228138208389,0.1487789750099182,-0.004440680844709277,0.1212835218757391,0.03177131526172161,-0.01590227335691452,-0.018224917352199554,-0.11517707258462906,-0.04435661435127258,-0.04499439895153046,0.00204277690500021,-0.008037918247282505,0.12383014569059014,0.028932458721101284,-0.021179338917136192,-0.018655791878700256,-0.004440680844709277,0.1212835218757391,0.03177131526172161,-0.01590227335691452,-0.018224917352199554,-0.11517707258462906,-0.04435661435127258,-0.04499439895153046,0.00204277690500021,-0.008037918247282505,0.12383014569059014,0.028932458721101284,-0.021179338917136192,-0.018655791878700256,-0.003067961575771161,0.1213549245527309,0.038349519697141066,-0.007669903939428124,-0.012271846303085088,-0.09664078963679534,-0.035281558121369905,-0.04601942363656919,-0.003067961575771161,-0.009203884727313927,0.1182869629769593,0.04070026003342109,-0.01977130793274827,-0.012476377074803022,,,,,,
11.306879961000007,0.0,0.0,0.003272492347489368,0.002181661564992912,-0.001090830782496456,-0.05710739900936808,0.004079099929240577,-0.9983597076816312,1.0,1.0,0.0,-0.0,-0.0,-0.0,-0.0,-0.0,-0.0,0.0,0.0,-0.0,0.0,0.0,0.0,0.0,-0.027479330077767372,-0.0033232122659683228,0.09316316246986389,0.09447115659713745,0.14976677298545837,0.370383620262146,0.3901737332344055,-0.17985716462135315,0.008501067757606506,-0.0494929775595665,0.0063469624146819115,0.06918048113584518,0.07245917618274689,0.14887136220932007,-0.004426371539011598,0.1213422454893589,0.031668370589613914,-0.015652120113372803,-0.018408842384815216,-0.11527280509471893,-0.04435183107852936,-0.04496429115533829,0.0021252669394016266,-0.008184454403817654,0.12375978915952146,0.02898882608860731,-0.021155115216970444,-0.018632695078849792,-0.004426371539011598,0.1213422454893589,0.031668370589613914,-0.015652120113372803,-0.018408842384815216,-0.11527280509471893,-0.04435183107852936,-0.04496429115533829,0.0021252669394016266,-0.008184454403817654,0.12375978915952146,0.02898882608860731,-0.021155115216970444,-0.018632695078849792,-0.003067961575771161,0.1213549245527309,0.038349519697141066,-0.007669903939428124,-0.012271846303085088,-0.09664078963679534,-0.035281558121369905,-0.04601942363656919,-0.003067961575771161,-0.009203884727313927,0.1182869629769593,0.04070026003342109,-0.01977130793274827,-0.012476377074803022,left_ankle,24,7.2,30,1055,1
