time_s,forward_cmd_m_s,yaw_cmd_rad_s,gyro_x,gyro_y,gyro_z,grav_x,grav_y,grav_z,left_contact,right_contact,left_hip_yaw_velocity_rad_s,left_hip_roll_velocity_rad_s,left_hip_pitch_velocity_rad_s,left_knee_velocity_rad_s,left_ankle_velocity_rad_s,neck_pitch_velocity_rad_s,head_pitch_velocity_rad_s,head_yaw_velocity_rad_s,head_roll_velocity_rad_s,right_hip_yaw_velocity_rad_s,right_hip_roll_velocity_rad_s,right_hip_pitch_velocity_rad_s,right_knee_velocity_rad_s,right_ankle_velocity_rad_s,left_hip_yaw_action,left_hip_roll_action,left_hip_pitch_action,left_knee_action,left_ankle_action,neck_pitch_action,head_pitch_action,head_yaw_action,head_roll_action,right_hip_yaw_action,right_hip_roll_action,right_hip_pitch_action,right_knee_action,right_ankle_action,left_hip_yaw_unclipped_target_rad,left_hip_roll_unclipped_target_rad,left_hip_pitch_unclipped_target_rad,left_knee_unclipped_target_rad,left_ankle_unclipped_target_rad,neck_pitch_unclipped_target_rad,head_pitch_unclipped_target_rad,head_yaw_unclipped_target_rad,head_roll_unclipped_target_rad,right_hip_yaw_unclipped_target_rad,right_hip_roll_unclipped_target_rad,right_hip_pitch_unclipped_target_rad,right_knee_unclipped_target_rad,right_ankle_unclipped_target_rad,left_hip_yaw_target_rad,left_hip_roll_target_rad,left_hip_pitch_target_rad,left_knee_target_rad,left_ankle_target_rad,neck_pitch_target_rad,head_pitch_target_rad,head_yaw_target_rad,head_roll_target_rad,right_hip_yaw_target_rad,right_hip_roll_target_rad,right_hip_pitch_target_rad,right_knee_target_rad,right_ankle_target_rad,left_hip_yaw_actual_rad,left_hip_roll_actual_rad,left_hip_pitch_actual_rad,left_knee_actual_rad,left_ankle_actual_rad,neck_pitch_actual_rad,head_pitch_actual_rad,head_yaw_actual_rad,head_roll_actual_rad,right_hip_yaw_actual_rad,right_hip_roll_actual_rad,right_hip_pitch_actual_rad,right_knee_actual_rad,right_ankle_actual_rad
17.346618648999993,0.0,0.0,-0.003272492347489368,-0.003272492347489368,0.00545415391248228,-0.06631375795099591,-0.0642733346294268,-0.9957265809257231,1.0,1.0,0.0,-0.0,-0.0,-0.0,-0.0,-0.0,-0.0,0.0,0.0,-0.0,0.0,0.0,0.0,0.0,0.07565300166606903,-0.017415568232536316,0.12443244457244873,0.2056652009487152,0.1571345031261444,0.012281268835067749,-0.13718292117118835,0.07435400784015656,-0.051072217524051666,-0.016617145389318466,-0.02184767834842205,0.10389908403158188,0.13644467294216156,0.31197622418403625,0.021356711396947503,0.1178191564977169,0.039485691115260124,0.012146390974521637,-0.016566909849643707,-0.2047983929514885,-0.17619099467992783,0.01858850196003914,-0.012768054381012917,3.450363874435425e-05,0.11671112896874547,0.037668476812541485,-0.0051587410271167755,0.022143520414829254,0.021356711396947503,0.1178191564977169,0.039485691115260124,0.0,-0.016566909849643707,-0.2047983929514885,-0.17619099467992783,0.01858850196003914,-0.012768054381012917,3.450363874435425e-05,0.11671112896874547,0.037668476812541485,-0.0051587410271167755,0.022143520414829254,0.012476377074803022,0.12175171424986386,0.011443905739170479,0.004601942363656963,-0.07056311624273937,-0.2147573103039897,-0.13805827090970757,0.01000837242940511,0.009932014274630155,0.004976915445140277,0.11577941571569553,0.01244228861285003,0.0003749730814833138,-0.06463172386291498
17.357575717000003,0.0,0.0,-0.001090830782496456,-0.002181661564992912,0.006544984694978736,-0.06631375795099591,-0.0642733346294268,-0.9957265809257231,1.0,1.0,0.0,-0.0,-0.0,-0.0,-0.0,-0.0,-0.0,0.0,0.0,-0.0,0.0,0.0,0.0,0.0,0.07951228320598602,-0.01777932047843933,0.09749124944210052,0.2310449182987213,0.11857403069734573,0.008171550929546356,-0.17479045689105988,0.10023494064807892,-0.05468001216650009,-0.03707151487469673,-0.03247123211622238,0.1115059033036232,0.1231875941157341,0.34081578254699707,0.02232153178192675,0.11772821843624115,0.03275039233267307,0.018491320312023163,-0.026207027956843376,-0.20582582242786884,-0.1855928786098957,0.02505873516201973,-0.013670003041625023,-0.005079088732600212,0.11405524052679539,0.039570181630551815,-0.00847301073372364,0.029353410005569458,0.02232153178192675,0.11772821843624115,0.03275039233267307,0.0,-0.026207027956843376,-0.20582582242786884,-0.1855928786098957,0.02505873516201973,-0.013670003041625023,-0.005079088732600212,0.11405524052679539,0.039570181630551815,-0.00847301073372364,0.029353410005569458,0.012476377074803022,0.12175171424986386,0.011443905739170479,0.004601942363656963,-0.07056311624273937,-0.2147573103039897,-0.13805827090970757,0.01000837242940511,0.009932014274630155,0.004976915445140277,0.11577941571569553,0.01244228861285003,0.0003749730814833138,-0.06463172386291498
17.376403030000006,0.0,0.0,-0.001090830782496456,-0.002181661564992912,0.006544984694978736,-0.06631375795099591,-0.0642733346294268,-0.9957265809257231,1.0,1.0,0.0,-0.0,-0.0,-0.0,-0.0,-0.0,-0.0,0.0,0.0,-0.0,0.0,0.0,0.0,0.0,0.08198033273220062,-0.021167561411857605,0.09004190564155579,0.23737680912017822,0.11113385856151581,0.006169356405735016,-0.18951475620269775,0.10658502578735352,-0.05327281355857849,-0.041909072548151016,-0.0309770330786705,0.11495866626501083,0.11963959783315659,0.3495664596557617,0.0229385441634804,0.11688115820288658,0.030888056382536888,0.02007429301738739,-0.028067070990800858,-0.20632637105882168,-0.18927395343780518,0.02664625644683838,-0.013318203389644623,-0.006288478150963783,0.11442879028618336,0.040433372370898724,-0.009360009804368019,0.03154107928276062,0.0229385441634804,0.11688115820288658,0.030888056382536888,0.0,-0.028067070990800858,-0.20632637105882168,-0.18927395343780518,0.02664625644683838,-0.013318203389644623,-0.006288478150963783,0.11442879028618336,0.040433372370898724,-0.009360009804368019,0.03154107928276062,0.012476377074803022,0.12175171424986386,0.011443905739170479,0.004601942363656963,-0.07056311624273937,-0.2147573103039897,-0.13805827090970757,0.01000837242940511,0.009932014274630155,0.004976915445140277,0.11577941571569553,0.01244228861285003,0.0003749730814833138,-0.06463172386291498
17.396538988999993,0.0,0.0,-0.006544984694978736,-0.00545415391248228,0.003272492347489368,-0.06631375795099591,-0.0642733346294268,-0.9957265809257231,1.0,1.0,0.0,-0.0,-0.0,-0.0,-0.0,-0.0,-0.0,0.0,0.0,-0.0,0.0,0.0,0.0,0.0,0.08334289491176605,-0.022015541791915894,0.08689243346452713,0.23961983621120453,0.11059559136629105,0.006207257509231567,-0.19492053985595703,0.1075001209974289,-0.052294276654720306,-0.04258734732866287,-0.03102460503578186,0.11592922359704971,0.11887826770544052,0.352097749710083,0.02327918470837176,0.11666916310787201,0.030100688338279724,0.020635049790143967,-0.028201637789607048,-0.20631689578294754,-0.19062539935112,0.026875030249357224,-0.013073569163680077,-0.006458046846091747,0.11441689729690552,0.04067601170390844,-0.009550342336297035,0.03217390179634094,0.02327918470837176,0.11666916310787201,0.030100688338279724,0.0,-0.028201637789607048,-0.20631689578294754,-0.19062539935112,0.026875030249357224,-0.013073569163680077,-0.006458046846091747,0.11441689729690552,0.04067601170390844,-0.009550342336297035,0.03217390179634094,0.012476377074803022,0.12175171424986386,0.011443905739170479,0.004601942363656963,-0.07056311624273937,-0.2147573103039897,-0.13805827090970757,0.01000837242940511,0.009932014274630155,0.004976915445140277,0.11577941571569553,0.01244228861285003,0.0003749730814833138,-0.06463172386291498
17.416728242999994,0.0,0.0,-0.008726646259971648,-0.00545415391248228,0.002181661564992912,-0.06631375795099591,-0.0642733346294268,-0.9957265809257231,1.0,1.0,0.0,-0.0,-0.0,-0.0,-0.0,-0.0,-0.0,0.0,0.0,-0.0,-0.07671776931843206,0.0,-0.07671776931843206,0.0,0.0836140513420105,-0.02131938934326172,0.08559675514698029,0.2409401834011078,0.1085939034819603,0.005408544093370438,-0.19794723391532898,0.10817691683769226,-0.05125848948955536,-0.04246148839592934,-0.03339942917227745,0.11638116091489792,0.1191881075501442,0.35402119159698486,0.02334697381593287,0.11684320122003555,0.029776768758893013,0.02096513658761978,-0.028702059760689735,-0.20651657413691282,-0.19138207286596298,0.027044229209423065,-0.01281462237238884,-0.006426582112908363,0.11382319126278162,0.040788996033370495,-0.009472882375121117,0.032654762268066406,0.02334697381593287,0.11684320122003555,0.029776768758893013,0.0,-0.028702059760689735,-0.20651657413691282,-0.19138207286596298,0.027044229209423065,-0.01281462237238884,-0.006426582112908363,0.11382319126278162,0.040788996033370495,-0.009472882375121117,0.032654762268066406,0.012476377074803022,0.12175171424986386,0.011443905739170479,0.004601942363656963,-0.07056311624273937,-0.2147573103039897,-0.13805827090970757,0.01000837242940511,0.009932014274630155,0.004976915445140277,0.11424543492781017,0.01244228861285003,-0.0011590077064024887,-0.06463172386291498
17.435681684000002,0.0,0.0,-0.002181661564992912,-0.004363323129985824,-0.001090830782496456,-0.06631375795099591,-0.0642733346294268,-0.9957265809257231,1.0,1.0,0.07671776931843206,-0.0,-0.0,-0.0,-0.0,-0.0,-0.2301533079552962,0.0,-0.15343553863686413,-0.0,0.0,0.07671776931843206,-0.15343553863686413,0.07671776931843206,0.08744257688522339,-0.02296184003353119,0.08889315277338028,0.2400861233472824,0.10401777178049088,-0.0020317286252975464,-0.20023183524608612,0.11190009117126465,-0.055145878344774246,-0.04685408994555473,-0.03440738096833229,0.11889678984880447,0.11760641634464264,0.35581547021865845,0.024304105201736093,0.11643258854746819,0.03060086816549301,0.020751621574163437,-0.02984609268605709,-0.20837664231657982,-0.19195322319865227,0.027975022792816162,-0.013786469586193562,-0.0075247325003147125,0.11357120331376791,0.041417903266847134,-0.009868305176496506,0.0331033319234848,0.024304105201736093,0.11643258854746819,0.03060086816549301,0.0,-0.02984609268605709,-0.20837664231657982,-0.19195322319865227,0.027975022792816162,-0.013786469586193562,-0.0075247325003147125,0.11357120331376791,0.041417903266847134,-0.009868305176496506,0.0331033319234848,0.014010357862688824,0.12175171424986386,0.011443905739170479,0.004601942363656963,-0.07056311624273937,-0.2147573103039897,-0.14266021327336453,0.01000837242940511,0.006864052698858994,0.004976915445140277,0.11424543492781017,0.015510250188621635,-0.00422696928217365,-0.06309774307502918
17.454996138000013,0.0,0.0,-0.014180800172453928,0.002181661564992912,-0.02945243112740431,-0.06631375795099591,-0.0642733346294268,-0.9957265809257231,1.0,1.0,0.0,-0.0,0.2301533079552962,-0.07671776931843206,0.07671776931843206,-0.0,-0.30687107727372825,0.0,-0.07671776931843206,-0.0,0.0,0.15343553863686413,-0.07671776931843206,0.15343553863686413,0.08753319084644318,-0.019248493015766144,0.0979512482881546,0.24452084302902222,0.10055266320705414,-0.008868779987096786,-0.2079007625579834,0.11029237508773804,-0.06388963758945465,-0.04522315412759781,-0.02803368866443634,0.1225900873541832,0.12183213233947754,0.3660697042942047,0.02432675869204104,0.11736092530190945,0.03286539204418659,0.02186030149459839,-0.030712369829416275,-0.21008590515702963,-0.1938704550266266,0.02757309377193451,-0.015972409397363663,-0.007116998545825481,0.1151646263897419,0.042341227643191814,-0.00881187617778778,0.03566689044237137,0.02432675869204104,0.11736092530190945,0.03286539204418659,0.0,-0.030712369829416275,-0.21008590515702963,-0.1938704550266266,0.02757309377193451,-0.015972409397363663,-0.007116998545825481,0.1151646263897419,0.042341227643191814,-0.00881187617778778,0.03566689044237137,0.014010357862688824,0.12175171424986386,0.016045848102827442,0.003067961575771161,-0.06902913545485401,-0.2147573103039897,-0.1487961364249073,0.01000837242940511,0.003796091123087833,0.004976915445140277,0.11424543492781017,0.018578211764392796,-0.005760950070059452,-0.058495800711372656
17.475172651999998,0.0,0.0,-0.0545415391248228,-0.008726646259971648,-0.05126904677733343,-0.0673380698616039,-0.062236700932694504,-0.9957872149231121,1.0,1.0,0.0,-0.0,0.15343553863686413,-0.15343553863686413,0.15343553863686413,-0.0,-0.30687107727372825,0.07671776931843206,-0.07671776931843206,-0.0,0.0,0.15343553863686413,0.0,0.30687107727372825,0.08561694622039795,-0.023275069892406464,0.10410250723361969,0.24734461307525635,0.09199314564466476,-0.020542673766613007,-0.21407637000083923,0.10191375017166138,-0.05989579111337662,-0.04486696049571037,-0.025967467576265335,0.1298658549785614,0.1258021891117096,0.3792266249656677,0.023847697535529733,0.11635428108274937,0.034403206780552864,0.02256624400615692,-0.03285224922001362,-0.21300437860190868,-0.19541435688734055,0.025478437542915344,-0.014973947778344154,-0.0070279501378536224,0.11568118166178465,0.044160169549286366,-0.007819361984729767,0.03895612061023712,0.023847697535529733,0.11635428108274937,0.034403206780552864,0.0,-0.03285224922001362,-0.21300437860190868,-0.19541435688734055,0.025478437542915344,-0.014973947778344154,-0.0070279501378536224,0.11568118166178465,0.044160169549286366,-0.007819361984729767,0.03895612061023712,0.014010357862688824,0.12175171424986386,0.019113809678598603,-0.0,-0.0659611738790824,-0.2147573103039897,-0.15493205957644962,0.011542353217290469,0.0022621103352020305,0.004976915445140277,0.11424543492781017,0.021646173340163957,-0.005760950070059452,-0.05235987755982989
17.49506400300001,0.0,0.0,-0.10144726277217041,-0.028361600344907856,-0.001090830782496456,-0.0673380698616039,-0.062236700932694504,-0.9957872149231121,1.0,1.0,0.0,-0.0,0.07671776931843206,-0.07671776931843206,0.3835888465921603,0.07671776931843206,-0.2301533079552962,0.0,-0.15343553863686413,-0.0,0.0,0.07671776931843206,-0.07671776931843206,0.3835888465921603,0.08455805480480194,-0.03184568136930466,0.0849350243806839,0.24258679151535034,0.11373337358236313,-0.01386680081486702,-0.20696409046649933,0.09186156094074249,-0.06052691861987114,-0.04654340445995331,-0.02983439341187477,0.14054563641548157,0.12080660462379456,0.3618861436843872,0.02358297468163073,0.11421162821352482,0.029611336067318916,0.02137678861618042,-0.027417192235589027,-0.2113354103639722,-0.19363628700375557,0.022965390235185623,-0.015131729654967785,-0.007447061128914356,0.11471445020288229,0.04683011490851641,-0.009068258106708527,0.03462100028991699,0.02358297468163073,0.11421162821352482,0.029611336067318916,0.0,-0.027417192235589027,-0.2113354103639722,-0.19363628700375557,0.022965390235185623,-0.015131729654967785,-0.007447061128914356,0.11471445020288229,0.04683011490851641,-0.009068258106708527,0.03462100028991699,0.014010357862688824,0.12175171424986386,0.020647790466483962,-0.0015339807878858025,-0.05829126993965428,-0.21322332951610434,-0.15953400194010658,0.014610314793062074,0.000728129547316228,0.004976915445140277,0.11424543492781017,0.021646173340163957,-0.007294930857945255,-0.044689973620401766
17.515093852999996,0.0,0.0,-0.07744898555724837,-0.031634092692397225,0.004363323129985824,-0.06836631476043234,-0.05918277994186679,-0.9959033314355515,1.0,1.0,0.0,-0.0,-0.0,-0.07671776931843206,0.2301533079552962,-0.0,-0.2301533079552962,0.15343553863686413,0.0,-0.07671776931843206,0.0,0.0,-0.07671776931843206,0.30687107727372825,0.08945780992507935,-0.033663779497146606,0.08951560407876968,0.23818443715572357,0.12109796702861786,-0.00927726924419403,-0.1986805498600006,0.07422593235969543,-0.07054200768470764,-0.05246200039982796,-0.03976114094257355,0.12549853324890137,0.10290315747261047,0.34231334924697876,0.024807913461700082,0.11375710368156433,0.030756480991840363,0.020276200026273727,-0.025576043874025345,-0.21018802747130394,-0.1915654018521309,0.01855648308992386,-0.01763550192117691,-0.008926710113883018,0.1122327633202076,0.04306833911687136,-0.013544119894504547,0.02972780168056488,0.024807913461700082,0.11375710368156433,0.030756480991840363,0.0,-0.025576043874025345,-0.21018802747130394,-0.1915654018521309,0.01855648308992386,-0.01763550192117691,-0.008926710113883018,0.1122327633202076,0.04306833911687136,-0.013544119894504547,0.02972780168056488,0.014010357862688824,0.12175171424986386,0.020647790466483962,-0.003067961575771161,-0.053689327575997314,-0.21322332951610434,-0.16413594430376355,0.016144295580947432,0.000728129547316228,0.0034429346572544747,0.11424543492781017,0.021646173340163957,-0.008828911645830613,-0.038554050468859
17.535481234999992,0.0,0.0,-0.037088246604879506,-0.03599741582238305,-0.017453292519943295,-0.06836631476043234,-0.05918277994186679,-0.9959033314355515,1.0,1.0,0.0,-0.0,-0.0,-0.0,0.15343553863686413,-0.0,-0.2301533079552962,0.07671776931843206,0.0,-0.0,0.0,0.0,-0.07671776931843206,0.4603066159105924,0.08898869156837463,-0.03130519390106201,0.09364237636327744,0.23619171977043152,0.13306738436222076,-0.0033817142248153687,-0.19563359022140503,0.08940954506397247,-0.07541066408157349,-0.05371726676821709,-0.03710613027215004,0.11181697994470596,0.10016569495201111,0.34822776913642883,0.024690633872523904,0.11434675008058548,0.0317881740629673,0.019778020679950714,-0.02258368954062462,-0.20871413871645927,-0.190803661942482,0.02235238626599312,-0.01885266602039337,-0.009240526705980301,0.11289651598781347,0.039647950790822506,-0.014228485524654388,0.0312064066529274,0.024690633872523904,0.11434675008058548,0.0317881740629673,0.0,-0.02258368954062462,-0.20871413871645927,-0.190803661942482,0.02235238626599312,-0.01885266602039337,-0.009240526705980301,0.11289651598781347,0.039647950790822506,-0.014228485524654388,0.0312064066529274,0.014010357862688824,0.12175171424986386,0.020647790466483962,-0.003067961575771161,-0.05062136600022615,-0.21322332951610434,-0.1687378866674205,0.016144295580947432,0.000728129547316228,0.0034429346572544747,0.11424543492781017,0.021646173340163957,-0.010362892433716415,-0.030884146529430875
17.555276684000006,0.0,0.0,-0.0916297857297023,-0.050178215994836975,0.0,-0.07040955622115933,-0.05612355930672121,-0.9959380706065435,1.0,1.0,0.0,-0.0,-0.0,-0.07671776931843206,0.15343553863686413,-0.0,-0.2301533079552962,0.0,0.0,-0.0,0.0,0.0,0.0,0.30687107727372825,0.08805996179580688,-0.03803127259016037,0.09011921286582947,0.23821020126342773,0.1505855917930603,-0.005412496626377106,-0.19041627645492554,0.07012099027633667,-0.07359716296195984,-0.052123475819826126,-0.035728320479393005,0.11585988849401474,0.09850973635911942,0.34170639514923096,0.024458451429381967,0.11266523040831089,0.03090738318860531,0.020282641053199768,-0.018204137682914734,-0.2092218343168497,-0.18949933350086212,0.017530247569084167,-0.01839929074048996,-0.00884207896888256,0.11324096843600273,0.0406586779281497,-0.014642475172877312,0.02957606315612793,0.024458451429381967,0.11266523040831089,0.03090738318860531,0.0,-0.018204137682914734,-0.2092218343168497,-0.18949933350086212,0.017530247569084167,-0.01839929074048996,-0.00884207896888256,0.11324096843600273,0.0406586779281497,-0.014642475172877312,0.02957606315612793,0.014010357862688824,0.12175171424986386,0.020647790466483962,-0.004601942363656963,-0.04755340442445499,-0.21322332951610434,-0.17180584824319167,0.016144295580947432,0.000728129547316228,0.0034429346572544747,0.11424543492781017,0.021646173340163957,-0.010362892433716415,-0.02321424259000275
17.57532237000001,0.0,0.0,-0.16035212502697901,-0.06654067773228381,0.03490658503988659,-0.0714367539493949,-0.053067302933836207,-0.9960324550658487,1.0,1.0,0.07671776931843206,-0.0,-0.0,-0.0,0.15343553863686413,-0.0,-0.07671776931843206,0.0,0.0,-0.0,0.0,0.0,0.0,0.30687107727372825,0.09498244524002075,-0.03231595456600189,0.08635219931602478,0.2406107485294342,0.1918567270040512,-0.0021594688296318054,-0.17542299628257751,0.03864008188247681,-0.08654237538576126,-0.04468928277492523,-0.03835950791835785,0.12445343285799026,0.10413652658462524,0.3226998448371887,0.026189072290435433,0.11409405991435051,0.029965629801154137,0.020882777869701385,-0.007886353880167007,-0.20840857736766338,-0.18575101345777512,0.009660020470619202,-0.021635593846440315,-0.006983530707657337,0.11258317157626152,0.04280706401914358,-0.013235777616500854,0.02482442557811737,0.026189072290435433,0.11409405991435051,0.029965629801154137,0.0,-0.007886353880167007,-0.20840857736766338,-0.18575101345777512,0.009660020470619202,-0.021635593846440315,-0.006983530707657337,0.11258317157626152,0.04280706401914358,-0.013235777616500854,0.02482442557811737,0.015544338650574627,0.12175171424986386,0.020647790466483962,-0.004601942363656963,-0.04448544284868339,-0.21322332951610434,-0.17487380981896328,0.016144295580947432,0.000728129547316228,0.0034429346572544747,0.11424543492781017,0.021646173340163957,-0.010362892433716415,-0.017078319438459985
17.59687012500001,0.0,0.0,-0.21925698728178766,-0.0818123086872342,-0.04145156973486533,-0.07245965618156401,-0.05102792688842536,-0.996065132862063,1.0,1.0,0.07671776931843206,-0.0,0.07671776931843206,-0.0,0.15343553863686413,-0.0,-0.07671776931843206,0.0,0.0,-0.0,0.0,0.0,-0.15343553863686413,0.30687107727372825,0.09800606966018677,-0.025040648877620697,0.09103535860776901,0.24849557876586914,0.21760958433151245,-0.0022948309779167175,-0.1624651700258255,0.00830511748790741,-0.0988968014717102,-0.036147426813840866,-0.0421723909676075,0.13740882277488708,0.10068770498037338,0.29718130826950073,0.026944978395476937,0.11591288633644581,0.031136419624090195,0.02285398542881012,-0.0014481395483016968,-0.2084424179047346,-0.1825115568935871,0.0020762793719768524,-0.02472420036792755,-0.004848066717386246,0.11162995081394911,0.046045911498367786,-0.01409798301756382,0.018444791436195374,0.026944978395476937,0.11591288633644581,0.031136419624090195,0.0,-0.0014481395483016968,-0.2084424179047346,-0.1825115568935871,0.0020762793719768524,-0.02472420036792755,-0.004848066717386246,0.11162995081394911,0.046045911498367786,-0.01409798301756382,0.018444791436195374,0.017078319438459985,0.12175171424986386,0.022181771254369764,-0.004601942363656963,-0.04141748127291223,-0.21322332951610434,-0.17640779060684864,0.016144295580947432,0.000728129547316228,0.0034429346572544747,0.11424543492781017,0.021646173340163957,-0.013430854009487576,-0.012476377074803022
17.615460685000016,0.0,0.0,-0.2378011105842274,-0.04690572364734761,-0.09490227807719166,-0.07247415069478043,-0.04695508354873099,-0.9962643813817705,1.0,1.0,0.0,-0.0,-0.0,-0.0,0.2301533079552962,-0.0,-0.0,0.0,0.0,-0.0,0.0,0.07671776931843206,-0.07671776931843206,0.15343553863686413,0.10074920952320099,-0.016177523881196976,0.10475941002368927,0.2546989321708679,0.23023900389671326,0.009490057826042175,-0.14338229596614838,0.0012276433408260345,-0.11202533543109894,-0.03216402605175972,-0.04161936044692993,0.12904399633407593,0.09457635879516602,0.2780424654483795,0.027630763361230493,0.11812866758555174,0.03456743247807026,0.024404823780059814,0.0017092153429985046,-0.2054961957037449,-0.17774083837866783,0.00030691083520650864,-0.028006333857774734,-0.003852216526865959,0.1117682084441185,0.043954704888165,-0.01562581956386566,0.01366008073091507,0.027630763361230493,0.11812866758555174,0.03456743247807026,0.0,0.0017092153429985046,-0.2054961957037449,-0.17774083837866783,0.00030691083520650864,-0.028006333857774734,-0.003852216526865959,0.1117682084441185,0.043954704888165,-0.01562581956386566,0.01366008073091507,0.017078319438459985,0.12175171424986386,0.022181771254369764,-0.004601942363656963,-0.03681553890925526,-0.21322332951610434,-0.17640779060684864,0.016144295580947432,0.000728129547316228,0.0034429346572544747,0.11424543492781017,0.02318015412804976,-0.014964834797373379,-0.00940841549903186
17.63555501799999,0.0,0.0,-0.20616701789183017,-0.02399827721492203,-0.11344640137963143,-0.07241057537768107,-0.04385429213014488,-0.9964103118872452,1.0,1.0,0.0,-0.0,-0.0,-0.0,0.2301533079552962,-0.0,-0.0,0.0,0.0,-0.0,0.0,0.0,0.0,0.07671776931843206,0.0962463766336441,-0.0071038417518138885,0.10215729475021362,0.25350093841552734,0.23458817601203918,0.018387973308563232,-0.13411495089530945,-0.006825990974903107,-0.12363126873970032,-0.030849553644657135,-0.051731884479522705,0.12762519717216492,0.08892077952623367,0.26080530881881714,0.02650505513884127,0.12039708811789751,0.03391690365970135,0.02410532534122467,0.0027965083718299866,-0.20327171683311462,-0.1754240021109581,-0.0017064977437257767,-0.03090781718492508,-0.003523598425090313,0.1092400774359703,0.043600005097687244,-0.017039714381098747,0.009350791573524475,0.02650505513884127,0.12039708811789751,0.03391690365970135,0.0,0.0027965083718299866,-0.20327171683311462,-0.1754240021109581,-0.0017064977437257767,-0.03090781718492508,-0.003523598425090313,0.1092400774359703,0.043600005097687244,-0.017039714381098747,0.009350791573524475,0.017078319438459985,0.12175171424986386,0.022181771254369764,-0.004601942363656963,-0.0322135965455983,-0.21322332951610434,-0.17640779060684864,0.016144295580947432,0.000728129547316228,0.0034429346572544747,0.11424543492781017,0.02318015412804976,-0.014964834797373379,-0.007874434711146502
17.655605723000008,0.0,0.0,-0.24216443371421323,0.004363323129985824,-0.10144726277217041,-0.07242293042141237,-0.03978160966809976,-0.996580324249576,1.0,1.0,0.07671776931843206,-0.07671776931843206,-0.0,-0.0,0.30687107727372825,-0.0,-0.0,0.0,-0.07671776931843206,-0.07671776931843206,0.0,0.0,0.0,0.0,0.09704630076885223,0.0006441958248615265,0.10413007438182831,0.25338003039360046,0.24369031190872192,0.032172322273254395,-0.1211220920085907,-0.012657593935728073,-0.13396431505680084,-0.030767817050218582,-0.0479804202914238,0.13745227456092834,0.08954709768295288,0.24258992075920105,0.026705036172643304,0.12233409751206636,0.03441009856760502,0.02407509833574295,0.005072042346000671,-0.19982562959194183,-0.1721757873892784,-0.0031643984839320183,-0.03349107876420021,-0.0035031642764806747,0.11017794348299503,0.0460567744448781,-0.016883134841918945,0.004796944558620453,0.026705036172643304,0.12233409751206636,0.03441009856760502,0.0,0.005072042346000671,-0.19982562959194183,-0.1721757873892784,-0.0031643984839320183,-0.03349107876420021,-0.0035031642764806747,0.11017794348299503,0.0460567744448781,-0.016883134841918945,0.004796944558620453,0.018612300226345788,0.12021773346197806,0.022181771254369764,-0.004601942363656963,-0.026077673394055978,-0.21322332951610434,-0.17640779060684864,0.016144295580947432,-0.0008058512405691304,0.0019089538693686722,0.11424543492781017,0.02318015412804976,-0.014964834797373379,-0.007874434711146502
17.675841461000005,0.0,0.0,-0.2650718801466388,0.014180800172453928,-0.11671889372712078,-0.0724416633834548,-0.032649763778458504,-0.9968381003610611,1.0,1.0,0.0,-0.15343553863686413,-0.07671776931843206,-0.0,0.2301533079552962,-0.0,0.07671776931843206,0.0,-0.15343553863686413,-0.0,0.0,0.0,0.0,0.0,0.09250578284263611,0.013666287064552307,0.1083873063325882,0.25385963916778564,0.25638896226882935,0.049340493977069855,-0.10374568402767181,-0.02148444950580597,-0.15156428515911102,-0.024958189576864243,-0.045025430619716644,0.160093754529953,0.09197857975959778,0.21236972510814667,0.025569906691089272,0.12558962032198906,0.03547440655529499,0.024195000529289246,0.008246704936027527,-0.19553358666598797,-0.1678316853940487,-0.005371112376451492,-0.037891071289777756,-0.00205075740814209,0.11091669090092182,0.051717144437134266,-0.01627526432275772,-0.0027581043541431427,0.025569906691089272,0.12558962032198906,0.03547440655529499,0.0,0.008246704936027527,-0.19553358666598797,-0.1678316853940487,-0.005371112376451492,-0.037891071289777756,-0.00205075740814209,0.11091669090092182,0.051717144437134266,-0.01627526432275772,-0.0027581043541431427,0.018612300226345788,0.1171497718862069,0.020647790466483962,-0.004601942363656963,-0.021475731030399015,-0.21322332951610434,-0.17487380981896328,0.014610314793062074,-0.005407793604226094,0.0019089538693686722,0.11424543492781017,0.02318015412804976,-0.014964834797373379,-0.007874434711146502
17.695849221000003,0.0,0.0,-0.22252947962927702,0.05345070834232634,-0.16144295580947549,-0.07143121184390744,-0.030613376504531758,-0.9969756281642509,1.0,1.0,0.0,-0.0,-0.0,-0.0,0.2301533079552962,-0.0,-0.0,-0.15343553863686413,-0.15343553863686413,-0.0,0.07671776931843206,0.07671776931843206,0.0,0.0,0.09439951181411743,0.010309591889381409,0.09863072633743286,0.24380968511104584,0.2412446141242981,0.07148350030183792,-0.08542422205209732,-0.0335068479180336,-0.1614276021718979,-0.027384143322706223,-0.049416519701480865,0.15530508756637573,0.08638360351324081,0.20148128271102905,0.026043338933959603,0.12475044652819633,0.03303526155650616,0.021682512015104294,0.004460617899894714,-0.18999783508479595,-0.16325131990015507,-0.0083767119795084,-0.04035690054297447,-0.002657245844602585,0.10981891863048077,0.05051997769623995,-0.017674008384346962,-0.005480214953422546,0.026043338933959603,0.12475044652819633,0.03303526155650616,0.0,0.004460617899894714,-0.18999783508479595,-0.16325131990015507,-0.0083767119795084,-0.04035690054297447,-0.002657245844602585,0.10981891863048077,0.05051997769623995,-0.017674008384346962,-0.005480214953422546,0.018612300226345788,0.1171497718862069,0.020647790466483962,-0.004601942363656963,-0.01687378866674205,-0.21322332951610434,-0.17487380981896328,0.011542353217290469,-0.006941774392111896,0.0019089538693686722,0.11577941571569553,0.024714134915935118,-0.014964834797373379,-0.007874434711146502
17.716017386999994,0.0,0.0,-0.23561944901923448,0.04908738521234052,-0.10581058590215622,-0.07042407720909245,-0.02653660880342614,-0.9971641077287438,1.0,1.0,0.0,-0.07671776931843206,-0.0,-0.0,0.2301533079552962,-0.0,0.07671776931843206,-0.07671776931843206,-0.15343553863686413,-0.0,0.0,0.0,0.07671776931843206,0.07671776931843206,0.09533414244651794,0.020859936252236366,0.10670407116413116,0.2436521351337433,0.25165650248527527,0.08372778445482254,-0.07725091278553009,-0.04955418035387993,-0.17047354578971863,-0.014635592699050903,-0.03996827080845833,0.1490897536277771,0.09340644627809525,0.19414159655570984,0.02627699659205973,0.12738803261891007,0.03505359776318073,0.021643124520778656,0.007063589990139008,-0.1869367640465498,-0.16120799258351326,-0.012388545088469982,-0.04261838644742966,0.000529891811311245,0.1121809808537364,0.04896614421159029,-0.015918297693133354,-0.00731513649225235,0.02627699659205973,0.12738803261891007,0.03505359776318073,0.0,0.007063589990139008,-0.1869367640465498,-0.16120799258351326,-0.012388545088469982,-0.04261838644742966,0.000529891811311245,0.1121809808537364,0.04896614421159029,-0.015918297693133354,-0.00731513649225235,0.018612300226345788,0.1156157910983211,0.020647790466483962,-0.004601942363656963,-0.012271846303085088,-0.21322332951610434,-0.17333982903107747,0.01000837242940511,-0.01154371675576886,0.0019089538693686722,0.11577941571569553,0.024714134915935118,-0.013430854009487576,-0.0063404539232607
17.735990759000003,0.0,0.0,-0.2585268954516601,0.031634092692397225,-0.04690572364734761,-0.0693462853682593,-0.021415764599021253,-0.997362751325847,1.0,1.0,0.0,-0.0,-0.0,-0.0,0.15343553863686413,0.07671776931843206,0.07671776931843206,-0.07671776931843206,-0.07671776931843206,-0.0,0.0,0.15343553863686413,0.0,0.0,0.0820416659116745,0.024388857185840607,0.10527390241622925,0.23972979187965393,0.2530534863471985,0.10087811201810837,-0.06436434388160706,-0.045937225222587585,-0.1782313734292984,-0.018348494544625282,-0.03980206325650215,0.1811976134777069,0.09288163483142853,0.17180529236793518,0.02295387745834887,0.12827026285231113,0.034696055576205254,0.020662538707256317,0.007412835955619812,-0.18264918215572834,-0.1579863503575325,-0.011484306305646896,-0.0445578433573246,-0.0003983336500823498,0.11222253274172544,0.05699310917407274,-0.016049500554800034,-0.012899212539196014,0.02295387745834887,0.12827026285231113,0.034696055576205254,0.0,0.007412835955619812,-0.18264918215572834,-0.1579863503575325,-0.011484306305646896,-0.0445578433573246,-0.0003983336500823498,0.11222253274172544,0.05699310917407274,-0.016049500554800034,-0.012899212539196014,0.018612300226345788,0.1156157910983211,0.020647790466483962,-0.004601942363656963,-0.009203884727313927,-0.21168934872821854,-0.17180584824319167,0.01000837242940511,-0.01461167833154002,0.0019089538693686722,0.11577941571569553,0.02931607727959208,-0.013430854009487576,-0.0063404539232607
17.756046704,0.0,0.0,-0.2585268954516601,0.020725784867432664,-0.016362461737446838,-0.0693551216768237,-0.014278995639346058,-0.9974898382343172,1.0,1.0,0.0,-0.0,0.07671776931843206,0.07671776931843206,0.15343553863686413,-0.0,-0.0,0.0,-0.2301533079552962,-0.0,0.0,0.15343553863686413,0.0,0.0,0.07724699378013611,0.03355074301362038,0.10524769127368927,0.23826096951961517,0.2516719400882721,0.11517017334699631,-0.05746340751647949,-0.051232825964689255,-0.1868477165699005,-0.013170321471989155,-0.030509434640407562,0.20998409390449524,0.09760596603155136,0.14903628826141357,0.021755209425464272,0.13056073430925608,0.03468950279057026,0.020295333117246628,0.007067449390888214,-0.17907616682350636,-0.1562611162662506,-0.012808206491172314,-0.04671192914247513,0.0008962096180766821,0.11454568989574909,0.06418972928076982,-0.014868417754769325,-0.018591463565826416,0.021755209425464272,0.13056073430925608,0.03468950279057026,0.0,0.007067449390888214,-0.17907616682350636,-0.1562611162662506,-0.012808206491172314,-0.04671192914247513,0.0008962096180766821,0.11454568989574909,0.06418972928076982,-0.014868417754769325,-0.018591463565826416,0.018612300226345788,0.1156157910983211,0.022181771254369764,-0.003067961575771161,-0.006135923151542766,-0.21168934872821854,-0.17180584824319167,0.01000837242940511,-0.01767963990731118,0.0019089538693686722,0.11577941571569553,0.03238403885536369,-0.013430854009487576,-0.0063404539232607
17.776218332000013,0.0,0.0,-0.33052172709642613,0.018544123302439753,-0.017453292519943295,-0.06935782734460172,-0.011219648541038513,-0.9975287521032423,1.0,1.0,0.0,-0.0,0.15343553863686413,0.07671776931843206,-0.0,0.07671776931843206,0.15343553863686413,0.0,-0.15343553863686413,-0.0,0.0,0.15343553863686413,0.0,0.0,0.07381138205528259,0.04289034754037857,0.11712315678596497,0.2525508403778076,0.25959208607673645,0.1212015226483345,-0.05586297810077667,-0.05496231094002724,-0.20348460972309113,-0.006184437312185764,-0.009657599031925201,0.264780193567276,0.1058882474899292,0.12894320487976074,0.020896306494250894,0.13289563544094563,0.03765836916863918,0.02386780083179474,0.009047485888004303,-0.1775683294981718,-0.1558610089123249,-0.01374057773500681,-0.05087115243077278,0.0026426806580275297,0.11975864879786968,0.07788875419646502,-0.012797847390174866,-0.023614734411239624,0.020896306494250894,0.13289563544094563,0.03765836916863918,0.0,0.009047485888004303,-0.1775683294981718,-0.1558610089123249,-0.01374057773500681,-0.05087115243077278,0.0026426806580275297,0.11975864879786968,0.07788875419646502,-0.012797847390174866,-0.023614734411239624,0.018612300226345788,0.1156157910983211,0.025249732830140925,-0.0015339807878858025,-0.006135923151542766,-0.21015536794033274,-0.1687378866674205,0.008474391641519308,-0.020747601483082787,0.0019089538693686722,0.11577941571569553,0.03545200043113485,-0.013430854009487576,-0.0063404539232607
17.796133223,0.0,0.0,-0.35015668118136234,0.009817477042468103,0.011999138607461015,-0.0693616158115332,-0.004080095047737247,-0.9975832391717568,1.0,1.0,0.0,-0.0,0.07671776931843206,0.07671776931843206,0.07671776931843206,0.07671776931843206,0.07671776931843206,-0.07671776931843206,-0.15343553863686413,-0.0,0.0,0.15343553863686413,0.0,0.0,0.07208484411239624,0.0464177280664444,0.10543152689933777,0.2514796853065491,0.24353152513504028,0.14572665095329285,-0.045257776975631714,-0.06265079975128174,-0.20361359417438507,-0.004064813256263733,0.007734570652246475,0.3130488693714142,0.10817357897758484,0.10844964534044266,0.020464672008529305,0.13377748057246208,0.034735461696982384,0.023600012063980103,0.005032345652580261,-0.17143704742193222,-0.15320970863103867,-0.015662699937820435,-0.05090339854359627,0.0031725866720080376,0.1241066912189126,0.08995592314749956,-0.012226514518260956,-0.028738124296069145,0.020464672008529305,0.13377748057246208,0.034735461696982384,0.0,0.005032345652580261,-0.17143704742193222,-0.15320970863103867,-0.015662699937820435,-0.05090339854359627,0.0031725866720080376,0.1241066912189126,0.08995592314749956,-0.012226514518260956,-0.028738124296069145,0.018612300226345788,0.1156157910983211,0.026783713618026728,-0.0,-0.004601942363656963,-0.20862138715244738,-0.1672039058795347,0.006940410853633505,-0.023815563058853947,0.0019089538693686722,0.11577941571569553,0.03851996200690601,-0.013430854009487576,-0.0063404539232607
17.81618979800001,0.0,0.0,-0.31306843457648287,-0.003272492347489368,0.07090400086226964,-0.06936204881871225,0.0020400602593738893,-0.9975894668338318,1.0,1.0,0.0,0.07671776931843206,0.07671776931843206,0.07671776931843206,-0.0,0.15343553863686413,0.07671776931843206,-0.07671776931843206,-0.15343553863686413,-0.0,0.0,0.2301533079552962,0.0,0.0,0.0719447135925293,0.051344599574804306,0.11157296597957611,0.2508434057235718,0.23172304034233093,0.16326045989990234,-0.037151046097278595,-0.07725177705287933,-0.21410678327083588,-0.0051490310579538345,0.00919149350374937,0.3320457637310028,0.1125810518860817,0.08971022069454193,0.02042963937856257,0.13500919844955206,0.03627082146704197,0.02344094216823578,0.0020802244544029236,-0.16705359518527985,-0.15118302591145039,-0.019312944263219833,-0.05352669581770897,0.002901532221585512,0.12447092193178833,0.09470514673739672,-0.011124646291136742,-0.03342298045754433,0.02042963937856257,0.13500919844955206,0.03627082146704197,0.0,0.0020802244544029236,-0.16705359518527985,-0.15118302591145039,-0.019312944263219833,-0.05352669581770897,0.002901532221585512,0.12447092193178833,0.09470514673739672,-0.011124646291136742,-0.03342298045754433,0.018612300226345788,0.1171497718862069,0.02831769440591253,0.0015339807878858025,-0.004601942363656963,-0.20555342557667577,-0.16566992509164935,0.005406430065748147,-0.02841750542251091,0.0019089538693686722,0.11577941571569553,0.044655885158448774,-0.013430854009487576,-0.0063404539232607
17.83645381400001,0.0,0.0,-0.30543261909900765,-0.007635815477475192,0.07308566242726255,-0.06936042508360377,0.00714004375860627,-0.9975661137024188,1.0,1.0,0.0,0.07671776931843206,-0.0,-0.0,0.07671776931843206,0.15343553863686413,-0.0,-0.07671776931843206,-0.2301533079552962,-0.0,0.0,0.30687107727372825,0.07671776931843206,0.0,0.06749850511550903,0.054989043623209,0.10489197075366974,0.2466663122177124,0.22475925087928772,0.18342074751853943,-0.026240132749080658,-0.08571740239858627,-0.22059302031993866,-0.006399721372872591,0.009093081578612328,0.34439271688461304,0.11216920614242554,0.07344826310873032,0.019318087259307504,0.13592030946165323,0.034600572660565376,0.022396668791770935,0.00033927708864212036,-0.16201352328062057,-0.1484552975744009,-0.02142935059964657,-0.055148255079984665,0.002588859642855823,0.12444631895050406,0.09779188502579927,-0.011227607727050781,-0.03748846985399723,0.019318087259307504,0.13592030946165323,0.034600572660565376,0.0,0.00033927708864212036,-0.16201352328062057,-0.1484552975744009,-0.02142935059964657,-0.055148255079984665,0.002588859642855823,0.12444631895050406,0.09779188502579927,-0.011227607727050781,-0.03748846985399723,0.018612300226345788,0.11868375267409226,0.02831769440591253,0.0015339807878858025,-0.003067961575771161,-0.2024854640009046,-0.16566992509164935,0.0038724492778623443,-0.03148546699828207,0.0019089538693686722,0.11577941571569553,0.04925782752210574,-0.011896873221601774,-0.0063404539232607
17.856424314999998,0.0,0.0,-0.3239767424014474,-0.0272707695624114,0.06217735460229799,-0.07037003573136728,0.01427797826433539,-0.9974187673228578,1.0,1.0,0.0,0.07671776931843206,-0.0,-0.0,0.07671776931843206,0.2301533079552962,-0.0,-0.07671776931843206,-0.15343553863686413,-0.0,0.0,0.30687107727372825,0.0,-0.07671776931843206,0.06275123357772827,0.05972497910261154,0.09794558584690094,0.24827133119106293,0.22496002912521362,0.20208412408828735,-0.015274301171302795,-0.09509342908859253,-0.2299080640077591,-0.009601171128451824,0.013874966651201248,0.3918696939945221,0.11475348472595215,0.03915553539991379,0.018131269374862313,0.13710429333150387,0.03286397643387318,0.022797923535108566,0.0003894716501235962,-0.1573476791381836,-0.14571383967995644,-0.023773357272148132,-0.057477016001939774,0.0017884972039610147,0.1256417902186513,0.10966112930327654,-0.010581538081169128,-0.04606165178120136,0.018131269374862313,0.13710429333150387,0.03286397643387318,0.0,0.0003894716501235962,-0.1573476791381836,-0.14571383967995644,-0.023773357272148132,-0.057477016001939774,0.0017884972039610147,0.1256417902186513,0.10966112930327654,-0.010581538081169128,-0.04606165178120136,0.018612300226345788,0.12175171424986386,0.02831769440591253,0.0015339807878858025,-0.0015339807878858025,-0.19788352163724765,-0.16566992509164935,0.002338468489976986,-0.03455342857405323,0.0019089538693686722,0.11577941571569553,0.05692773146153386,-0.011896873221601774,-0.007874434711146502
17.87639655800001,0.0,0.0,-0.22252947962927702,-0.026179938779914945,0.002181661564992912,-0.07036399814735797,0.019375593692750742,-0.997333191132117,1.0,1.0,0.0,0.15343553863686413,0.07671776931843206,0.07671776931843206,0.07671776931843206,0.15343553863686413,0.07671776931843206,-0.15343553863686413,-0.15343553863686413,-0.0,0.0,0.3835888465921603,0.07671776931843206,-0.15343553863686413,0.06886328756809235,0.06010337173938751,0.10866901278495789,0.2429387867450714,0.2107716202735901,0.2235364019870758,0.001276552677154541,-0.11092625558376312,-0.24312829971313477,-0.012850902043282986,-0.010202234610915184,0.35092127323150635,0.11136233061552048,0.03530409187078476,0.019659282872453332,0.13719889149069786,0.03554483316838741,0.021464787423610687,-0.0031576305627822876,-0.15198460966348648,-0.1415761262178421,-0.02773156389594078,-0.06078207492828369,0.0009760644752532244,0.11962248990312219,0.0994240241125226,-0.011429326608777046,-0.04702451266348362,0.019659282872453332,0.13719889149069786,0.03554483316838741,0.0,-0.0031576305627822876,-0.15198460966348648,-0.1415761262178421,-0.02773156389594078,-0.06078207492828369,0.0009760644752532244,0.11962248990312219,0.0994240241125226,-0.011429326608777046,-0.04702451266348362,0.018612300226345788,0.12328569503774922,0.02985167519379789,0.003067961575771161,-0.0,-0.1948155600614765,-0.16413594430376355,-0.0007294930857946191,-0.03762139014982484,0.0019089538693686722,0.11577941571569553,0.06306365461307618,-0.010362892433716415,-0.012476377074803022
17.896679239999997,0.0,0.0,-0.22362031041177347,-0.006544984694978736,-0.07853981633974483,-0.07042774554629203,0.024496607146536356,-0.9972160492569175,1.0,1.0,0.07671776931843206,-0.0,-0.0,-0.0,-0.0,0.2301533079552962,0.15343553863686413,-0.15343553863686413,-0.15343553863686413,-0.0,0.0,0.30687107727372825,0.07671776931843206,-0.15343553863686413,0.07610468566417694,0.0572773814201355,0.11864647269248962,0.24527636170387268,0.2073822319507599,0.24422267079353333,0.020731359720230103,-0.12322649359703064,-0.24724216759204865,-0.01611599698662758,-0.01930462382733822,0.33803731203079224,0.10769987851381302,0.02123979479074478,0.02146963239647448,0.13649239391088486,0.03803919814527035,0.022049181163311005,-0.004004977643489838,-0.1468130424618721,-0.1367124244570732,-0.03080662339925766,-0.06181054189801216,0.0001597907394170761,0.11734689259901643,0.09620303381234407,-0.01234493963420391,-0.050540586933493614,0.02146963239647448,0.13649239391088486,0.03803919814527035,0.0,-0.004004977643489838,-0.1468130424618721,-0.1367124244570732,-0.03080662339925766,-0.06181054189801216,0.0001597907394170761,0.11734689259901643,0.09620303381234407,-0.01234493963420391,-0.050540586933493614,0.02014628101423159,0.12328569503774922,0.02985167519379789,0.003067961575771161,-0.0,-0.18867963690993372,-0.1610679827279924,-0.00379745466156578,-0.040689351725596,0.0019089538693686722,0.11577941571569553,0.06919957776461895,-0.008828911645830613,-0.015544338650574627
17.916567872,0.0,0.0,-0.24216443371421323,-0.007635815477475192,-0.07090400086226964,-0.07042011604867814,0.028576278976275182,-0.9971080199936018,1.0,1.0,0.0,0.15343553863686413,-0.0,-0.0,-0.0,0.2301533079552962,0.2301533079552962,-0.15343553863686413,-0.15343553863686413,-0.0,0.0,0.30687107727372825,0.0,-0.15343553863686413,0.07519295811653137,0.056761398911476135,0.09737671911716461,0.23440636694431305,0.18077585101127625,0.27735722064971924,0.04702909290790558,-0.12456174194812775,-0.24282236397266388,-0.02764105051755905,-0.01573261246085167,0.3705076575279236,0.10692428052425385,0.01804119348526001,0.02124170050956309,0.13636339828372002,0.032721759751439095,0.019331682473421097,-0.010656572878360748,-0.13852940499782562,-0.13013799116015434,-0.031140435487031937,-0.06070559099316597,-0.002721472643315792,0.11823989544063807,0.10432062018662691,-0.012538839131593704,-0.05134023725986481,0.02124170050956309,0.13636339828372002,0.032721759751439095,0.0,-0.010656572878360748,-0.13852940499782562,-0.13013799116015434,-0.031140435487031937,-0.06070559099316597,-0.002721472643315792,0.11823989544063807,0.10432062018662691,-0.012538839131593704,-0.05134023725986481,0.02014628101423159,0.12635365661352083,0.02985167519379789,0.003067961575771161,-0.0,-0.18561167533416256,-0.15646604036433542,-0.006865416237336941,-0.04222333251348136,0.0003749730814833138,0.11577941571569553,0.07533550091616127,-0.008828911645830613,-0.018612300226345788
17.936615280000012,0.0,0.0,-0.1810779098944117,-0.007635815477475192,-0.08835729338221293,-0.07041131586252027,0.03265452329856012,-0.9969834144591636,1.0,1.0,0.0,-0.0,-0.0,-0.0,-0.0,0.30687107727372825,0.15343553863686413,-0.15343553863686413,-0.07671776931843206,-0.15343553863686413,0.0,0.30687107727372825,0.07671776931843206,-0.2301533079552962,0.07921533286571503,0.05499371513724327,0.10848262906074524,0.2276643067598343,0.16553154587745667,0.29640740156173706,0.0664796382188797,-0.13259850442409515,-0.24475573003292084,-0.03982548043131828,-0.034144531935453415,0.33170732855796814,0.09729772806167603,0.010597750544548035,0.022247294196859002,0.1359214773401618,0.03549823723733425,0.017646167427301407,-0.014467649161815643,-0.13376685976982117,-0.1252753548324108,-0.03314962610602379,-0.06118893250823021,-0.0057675801217556,0.11363691557198763,0.09462053794413805,-0.01494547724723816,-0.0532010979950428,0.022247294196859002,0.1359214773401618,0.03549823723733425,0.0,-0.014467649161815643,-0.13376685976982117,-0.1252753548324108,-0.03314962610602379,-0.06118893250823021,-0.0057675801217556,0.11363691557198763,0.09462053794413805,-0.01494547724723816,-0.0532010979950428,0.02014628101423159,0.12635365661352083,0.03138565598168369,0.003067961575771161,-0.0,-0.1794757521826198,-0.15339807878856426,-0.008399397025222743,-0.04682527487713832,-0.002692988494288291,0.11577941571569553,0.08147142406770404,-0.007294930857945255,-0.02321424259000275
17.956873185000006,0.0,0.0,-0.12326387842209953,0.00545415391248228,-0.22143864884678055,-0.07040134630546323,0.03673113720285038,-0.9968422513106894,1.0,1.0,0.0,-0.0,0.15343553863686413,-0.0,-0.0,0.30687107727372825,0.15343553863686413,-0.15343553863686413,-0.15343553863686413,-0.07671776931843206,0.0,0.2301533079552962,0.0,-0.2301533079552962,0.08810552954673767,0.0467645637691021,0.1136106550693512,0.22264035046100616,0.15057644248008728,0.3179154098033905,0.08840692043304443,-0.1496267169713974,-0.24466091394424438,-0.05372725427150726,-0.050450269132852554,0.3044074475765228,0.09239798039197922,0.013366669416427612,0.024469843367114663,0.1338641894981265,0.03678024373948574,0.016390178352594376,-0.01820642501115799,-0.1283898577094078,-0.11979353427886963,-0.03740667924284935,-0.061165228486061096,-0.009243023581802845,0.10956048127263784,0.08779556769877672,-0.01617041416466236,-0.052508868277072906,0.024469843367114663,0.1338641894981265,0.03678024373948574,0.0,-0.01820642501115799,-0.1283898577094078,-0.11979353427886963,-0.03740667924284935,-0.061165228486061096,-0.009243023581802845,0.10956048127263784,0.08779556769877672,-0.01617041416466236,-0.052508868277072906,0.02014628101423159,0.12635365661352083,0.032919636769569494,0.003067961575771161,-0.0,-0.17333982903107747,-0.15033011721279266,-0.013001339388879707,-0.04835925566502412,-0.00422696928217365,0.11577941571569553,0.086073366431361,-0.007294930857945255,-0.026282204165773912
17.976883723000014,0.0,0.0,-0.11126473981463851,0.030543261909900768,-0.272707695624114,-0.06938063968909491,0.03877153394390598,-0.9968365437683194,1.0,1.0,0.0,-0.0,0.07671776931843206,-0.0,-0.0,0.30687107727372825,0.2301533079552962,-0.15343553863686413,-0.07671776931843206,-0.15343553863686413,0.0,0.15343553863686413,0.0,-0.07671776931843206,0.09464001655578613,0.04173346236348152,0.12449240684509277,0.21908041834831238,0.14109820127487183,0.3380115032196045,0.10828229784965515,-0.1494544893503189,-0.2408541589975357,-0.06262191385030746,-0.06007377430796623,0.2559250295162201,0.08901792019605637,0.034260548651218414,0.02610346511937678,0.13260641414672136,0.039500681683421135,0.015500195324420929,-0.020575985312461853,-0.12336583435535431,-0.11482468992471695,-0.03736362233757973,-0.060213539749383926,-0.011466688476502895,0.10715460497885942,0.07567496318370104,-0.017015429213643074,-0.047285398468375206,0.02610346511937678,0.13260641414672136,0.039500681683421135,0.0,-0.020575985312461853,-0.12336583435535431,-0.11482468992471695,-0.03736362233757973,-0.060213539749383926,-0.011466688476502895,0.10715460497885942,0.07567496318370104,-0.017015429213643074,-0.047285398468375206,0.02014628101423159,0.12635365661352083,0.03445361755745485,0.003067961575771161,-0.0,-0.16566992509164935,-0.1457281748491357,-0.016069300964650868,-0.049893236452909925,-0.005760950070059452,0.11577941571569553,0.0876073472192468,-0.005760950070059452,-0.029350165741545073
17.996860483999995,0.0,0.0,-0.08072147790473774,0.022907446432425576,-0.19634954084936207,-0.0683595889500113,0.04081169489552914,-0.9968256478232991,1.0,1.0,0.0,-0.0,0.07671776931843206,-0.0,-0.07671776931843206,0.3835888465921603,0.2301533079552962,-0.15343553863686413,-0.07671776931843206,-0.07671776931843206,0.0,0.0,0.07671776931843206,-0.15343553863686413,0.09176699817180634,0.03637957572937012,0.13184866309165955,0.2105901837348938,0.12402571737766266,0.35780951380729675,0.12077239155769348,-0.14963650703430176,-0.2255992442369461,-0.07445412129163742,-0.06881603598594666,0.22574391961097717,0.08232226967811584,0.041106194257736206,0.02538521052338183,0.1312679424881935,0.04133974574506283,0.013377636671066284,-0.024844106286764145,-0.11841633170843124,-0.11170216649770737,-0.03740912675857544,-0.056399811059236526,-0.014424740336835384,0.10496903955936432,0.06812968570739031,-0.018689341843128204,-0.04557398706674576,0.02538521052338183,0.1312679424881935,0.04133974574506283,0.0,-0.024844106286764145,-0.11841633170843124,-0.11170216649770737,-0.03740912675857544,-0.056399811059236526,-0.014424740336835384,0.10496903955936432,0.06812968570739031,-0.018689341843128204,-0.04557398706674576,0.02014628101423159,0.12635365661352083,0.03752157913322601,0.003067961575771161,-0.0015339807878858025,-0.15953400194010658,-0.14112623248547917,-0.01913726254042203,-0.049893236452909925,-0.007294930857945255,0.11577941571569553,0.08914132800713216,-0.005760950070059452,-0.03241812731731668
18.017092203999994,0.0,0.0,-0.016362461737446838,0.007635815477475192,-0.18653206380689397,-0.0683595889500113,0.04081169489552914,-0.9968256478232991,1.0,1.0,0.0,-0.0,0.15343553863686413,-0.0,-0.07671776931843206,0.30687107727372825,0.2301533079552962,-0.2301533079552962,-0.07671776931843206,-0.0,0.0,0.07671776931843206,0.0,-0.07671776931843206,0.10023409128189087,0.029968611896038055,0.13898274302482605,0.20114025473594666,0.11642558872699738,0.3715663552284241,0.12634989619255066,-0.15359459817409515,-0.21158362925052643,-0.08197091519832611,-0.07789620757102966,0.1682387888431549,0.08070220798254013,0.07138325273990631,0.027501983800902963,0.1296652015298605,0.043123265728354454,0.011015154421329498,-0.026744138449430466,-0.11497712135314941,-0.11030779033899307,-0.03839864954352379,-0.05289590731263161,-0.016303938813507557,0.10269899666309357,0.05375340301543474,-0.019094357267022133,-0.03800472244620323,0.027501983800902963,0.1296652015298605,0.043123265728354454,0.0,-0.026744138449430466,-0.11497712135314941,-0.11030779033899307,-0.03839864954352379,-0.05289590731263161,-0.016303938813507557,0.10269899666309357,0.05375340301543474,-0.019094357267022133,-0.03800472244620323,0.02014628101423159,0.12635365661352083,0.039055559921111815,0.003067961575771161,-0.003067961575771161,-0.15339807878856426,-0.1349903093339364,-0.023739204904078992,-0.051427217240795284,-0.007294930857945255,0.11424543492781017,0.08914132800713216,-0.005760950070059452,-0.03241812731731668
18.036984133000004,0.0,0.0,-0.015271630954950384,0.008726646259971648,-0.10690141668465268,-0.0683595889500113,0.04081169489552914,-0.9968256478232991,1.0,1.0,0.0,-0.0,-0.0,-0.0,-0.07671776931843206,0.30687107727372825,0.30687107727372825,-0.15343553863686413,0.0,-0.0,-0.15343553863686413,0.0,0.0,0.0,0.10096488893032074,0.025871511548757553,0.14865826070308685,0.2008231282234192,0.12152069807052612,0.378801554441452,0.12508529424667358,-0.15642189979553223,-0.20271636545658112,-0.08624272793531418,-0.07866901159286499,0.14877066016197205,0.08184584230184555,0.077119380235672,0.02768468321301043,0.12864092644304037,0.045542145147919655,0.010935872793197632,-0.02547036111354828,-0.11316832154989243,-0.11062394082546234,-0.03910547494888306,-0.05067909136414528,-0.017371891997754574,0.10250579565763474,0.04888637084513903,-0.018808448687195778,-0.03657069057226181,0.02768468321301043,0.12864092644304037,0.045542145147919655,0.0,-0.02547036111354828,-0.11316832154989243,-0.11062394082546234,-0.03910547494888306,-0.05067909136414528,-0.017371891997754574,0.10250579565763474,0.04888637084513903,-0.018808448687195778,-0.03657069057226181,0.02014628101423159,0.12635365661352083,0.039055559921111815,0.003067961575771161,-0.004601942363656963,-0.1472621556370215,-0.13038836697027945,-0.026807166479850597,-0.051427217240795284,-0.007294930857945255,0.11271145413992437,0.08914132800713216,-0.005760950070059452,-0.033952108105202036
18.057054744,0.0,0.0,-0.02399827721492203,0.002181661564992912,-0.02181661564992912,-0.06835670706743223,0.04183022372783166,-0.996783623953452,1.0,1.0,0.0,-0.0,-0.0,0.07671776931843206,-0.07671776931843206,0.2301533079552962,0.15343553863686413,-0.15343553863686413,0.0,-0.0,-0.15343553863686413,0.0,0.0,-0.07671776931843206,0.09228600561618805,0.018468614667654037,0.13994568586349487,0.19031932950019836,0.10622350871562958,0.4012424349784851,0.13555046916007996,-0.15387722849845886,-0.19034980237483978,-0.09486307203769684,-0.08226142823696136,0.15228110551834106,0.07933205366134644,0.07567715644836426,0.025514962384477258,0.1267902022227645,0.04336400143802166,0.008309923112392426,-0.029294658452272415,-0.10755810141563416,-0.10800764709711075,-0.038469307124614716,-0.047587450593709946,-0.01952697802335024,0.10160769149661064,0.04976398218423128,-0.019436895847320557,-0.036931246519088745,0.025514962384477258,0.1267902022227645,0.04336400143802166,0.0,-0.029294658452272415,-0.10755810141563416,-0.10800764709711075,-0.038469307124614716,-0.047587450593709946,-0.01952697802335024,0.10160769149661064,0.04976398218423128,-0.019436895847320557,-0.036931246519088745,0.02014628101423159,0.12635365661352083,0.039055559921111815,0.004601942363656963,-0.006135923151542766,-0.14112623248547917,-0.12578642460662248,-0.029875128055621758,-0.051427217240795284,-0.008828911645830613,0.1096434925641532,0.08914132800713216,-0.005760950070059452,-0.033952108105202036
18.07738587,0.0,0.0,0.0272707695624114,-0.016362461737446838,-0.028361600344907856,-0.06937500670164529,0.04080882747155605,-0.9967556109927564,1.0,1.0,0.0,-0.0,-0.0,-0.0,-0.0,0.30687107727372825,0.2301533079552962,-0.07671776931843206,0.0,-0.07671776931843206,-0.07671776931843206,-0.07671776931843206,0.0,0.0,0.09806248545646667,0.016162896528840065,0.15101058781147003,0.19432003796100616,0.11862806975841522,0.3998059034347534,0.12726934254169464,-0.15341855585575104,-0.1884007751941681,-0.09133167564868927,-0.08130037784576416,0.1234753206372261,0.08864889293909073,0.09627117961645126,0.026959082344546914,0.126213772688061,0.04613022692501545,0.009310100227594376,-0.026193518191576004,-0.10791723430156708,-0.11007792875170708,-0.03835463896393776,-0.04710019379854202,-0.018644128926098347,0.10184795409440994,0.04256253596395254,-0.017107686027884483,-0.031782740727066994,0.026959082344546914,0.126213772688061,0.04613022692501545,0.0,-0.026193518191576004,-0.10791723430156708,-0.11007792875170708,-0.03835463896393776,-0.04710019379854202,-0.018644128926098347,0.10184795409440994,0.04256253596395254,-0.017107686027884483,-0.031782740727066994,0.02014628101423159,0.12635365661352083,0.039055559921111815,0.004601942363656963,-0.006135923151542766,-0.1349903093339364,-0.12271846303085132,-0.031409108843507116,-0.049893236452909925,-0.008828911645830613,0.1081095117762674,0.086073366431361,-0.005760950070059452,-0.033952108105202036
18.097179022999995,0.0,0.0,0.02945243112740431,-0.017453292519943295,-0.001090830782496456,-0.06937500670164529,0.04080882747155605,-0.9967556109927564,1.0,1.0,0.0,-0.0,-0.0,-0.0,-0.07671776931843206,0.30687107727372825,0.07671776931843206,0.0,0.07671776931843206,-0.0,0.0,-0.30687107727372825,0.0,0.0,0.09577576816082001,0.01598975621163845,0.14851248264312744,0.18537338078022003,0.1045660451054573,0.41726016998291016,0.12870758771896362,-0.14353199303150177,-0.1787126213312149,-0.08488839864730835,-0.08185036480426788,0.1027078852057457,0.0879109725356102,0.10957428812980652,0.026387403020635247,0.1261704876087606,0.0455057006329298,0.007073435932397842,-0.029709024354815483,-0.1035536676645279,-0.10971836745738983,-0.03588299825787544,-0.044678155332803726,-0.017033309675753117,0.10171045735478401,0.03737067710608244,-0.017292166128754616,-0.02845696359872818,0.026387403020635247,0.1261704876087606,0.0455057006329298,0.0,-0.029709024354815483,-0.1035536676645279,-0.10971836745738983,-0.03588299825787544,-0.044678155332803726,-0.017033309675753117,0.10171045735478401,0.03737067710608244,-0.017292166128754616,-0.02845696359872818,0.02014628101423159,0.12635365661352083,0.04058954070899762,0.004601942363656963,-0.007669903939428124,-0.13038836697027945,-0.12118448224296552,-0.031409108843507116,-0.049893236452909925,-0.008828911645830613,0.1081095117762674,0.07840346249193288,-0.005760950070059452,-0.033952108105202036
18.117232523000013,0.0,0.0,0.07635815477475191,-0.01090830782496456,0.04690572364734761,-0.06938063968909491,0.03877153394390598,-0.9968365437683194,1.0,1.0,0.0,-0.0,0.07671776931843206,-0.0,-0.0,0.15343553863686413,0.15343553863686413,0.0,0.0,-0.0,-0.07671776931843206,-0.30687107727372825,0.0,0.0,0.09538130462169647,0.008375640958547592,0.15250296890735626,0.18478256464004517,0.1121775284409523,0.42079025506973267,0.11961491405963898,-0.12139520049095154,-0.16593782603740692,-0.07680805027484894,-0.07497456669807434,0.06932482868432999,0.0938388854265213,0.13793888688087463,0.026288787135854363,0.12426695879548788,0.04650332219898701,0.006925731897354126,-0.027806153520941734,-0.10267114639282227,-0.11199153587222099,-0.030348800122737885,-0.04148445650935173,-0.015013222582638264,0.1034294068813324,0.029024912975728512,-0.01581018790602684,-0.02136581391096115,0.026288787135854363,0.12426695879548788,0.04650332219898701,0.0,-0.027806153520941734,-0.10267114639282227,-0.11199153587222099,-0.030348800122737885,-0.04148445650935173,-0.015013222582638264,0.1034294068813324,0.029024912975728512,-0.01581018790602684,-0.02136581391096115,0.02014628101423159,0.12635365661352083,0.04058954070899762,0.004601942363656963,-0.007669903939428124,-0.12578642460662248,-0.11811652066719436,-0.031409108843507116,-0.049893236452909925,-0.008828911645830613,0.10657553098838204,0.07380152012827591,-0.005760950070059452,-0.033952108105202036
18.13746170600001,0.0,0.0,0.1461713248545251,-0.01090830782496456,0.02181661564992912,-0.06938598507397778,0.03673375680387058,-0.99691334437171,1.0,1.0,-0.07671776931843206,-0.0,0.07671776931843206,-0.0,-0.0,0.2301533079552962,0.07671776931843206,0.0,0.0,-0.0,0.0,-0.30687107727372825,0.07671776931843206,0.0,0.09059174358844757,-0.0008427426218986511,0.16562478244304657,0.18229413032531738,0.1176774799823761,0.41866862773895264,0.10631255805492401,-0.10715796053409576,-0.15970368683338165,-0.06966318190097809,-0.07045905292034149,0.04791327565908432,0.09145639091730118,0.14974623918533325,0.025091396877542138,0.12196236290037632,0.049783775582909584,0.00630362331867218,-0.026431165635585785,-0.10320155322551727,-0.11531712487339973,-0.02678949013352394,-0.03992592170834541,-0.013227005489170551,0.10455828532576561,0.023672024719417095,-0.01640581153333187,-0.018413975834846497,0.025091396877542138,0.12196236290037632,0.049783775582909584,0.0,-0.026431165635585785,-0.10320155322551727,-0.11531712487339973,-0.02678949013352394,-0.03992592170834541,-0.013227005489170551,0.10455828532576561,0.023672024719417095,-0.01640581153333187,-0.018413975834846497,0.018612300226345788,0.12635365661352083,0.042123521496882976,0.004601942363656963,-0.007669903939428124,-0.12118448224296552,-0.11658253987930856,-0.031409108843507116,-0.049893236452909925,-0.008828911645830613,0.10657553098838204,0.06766559697673315,-0.00422696928217365,-0.033952108105202036
18.15738367200001,0.0,0.0,0.08617563181722002,-0.013089969389957472,0.050178215994836975,-0.0693910426564291,0.03469552132821455,-0.9969860099313416,1.0,1.0,0.0,0.07671776931843206,-0.0,-0.0,-0.07671776931843206,0.2301533079552962,0.07671776931843206,0.0,0.0,-0.0,0.0,-0.2301533079552962,0.0,0.07671776931843206,0.08655819296836853,0.008253425359725952,0.16309219598770142,0.18294422328472137,0.11722468584775925,0.43262261152267456,0.10707736015319824,-0.10990020632743835,-0.1636829376220703,-0.06393027305603027,-0.06991124153137207,0.04342203587293625,0.08901462703943253,0.1480231136083603,0.024083009222522378,0.12423640489578247,0.049150628969073296,0.006466146558523178,-0.026544364169239998,-0.09971305727958679,-0.11512592434883118,-0.02747505158185959,-0.04092073440551758,-0.011793778277933598,0.10469523817300797,0.022549214772880077,-0.017016252502799034,-0.018844757229089737,0.024083009222522378,0.12423640489578247,0.049150628969073296,0.0,-0.026544364169239998,-0.09971305727958679,-0.11512592434883118,-0.02747505158185959,-0.04092073440551758,-0.011793778277933598,0.10469523817300797,0.022549214772880077,-0.017016252502799034,-0.018844757229089737,0.018612300226345788,0.12788763740140618,0.042123521496882976,0.004601942363656963,-0.009203884727313927,-0.11811652066719436,-0.1150485590914232,-0.031409108843507116,-0.049893236452909925,-0.008828911645830613,0.10657553098838204,0.06306365461307618,-0.00422696928217365,-0.03241812731731668
18.177419320000013,0.0,0.0,0.0818123086872342,-0.009817477042468103,0.061086523819801536,-0.0693934634622064,0.03367623962136487,-0.9970207912143477,1.0,1.0,-0.07671776931843206,0.07671776931843206,-0.0,-0.0,-0.07671776931843206,0.30687107727372825,-0.0,0.0,0.0,-0.0,0.0,-0.2301533079552962,0.0,0.0,0.07584157586097717,0.0107622891664505,0.15702275931835175,0.17996910214424133,0.11218373477458954,0.44935381412506104,0.10560217499732971,-0.10549262166023254,-0.16118402779102325,-0.05782342702150345,-0.06512109935283661,0.037672221660614014,0.08910440653562546,0.14868780970573425,0.02140385494567454,0.12486362084746361,0.04763326980173588,0.005722366273403168,-0.027804601937532425,-0.09553025662899017,-0.11549472063779831,-0.026373155415058136,-0.040296006947755814,-0.010267066769301891,0.10589277371764183,0.02111176121979952,-0.0169938076287508,-0.018678583204746246,0.02140385494567454,0.12486362084746361,0.04763326980173588,0.0,-0.027804601937532425,-0.09553025662899017,-0.11549472063779831,-0.026373155415058136,-0.040296006947755814,-0.010267066769301891,0.10589277371764183,0.02111176121979952,-0.0169938076287508,-0.018678583204746246,0.015544338650574627,0.129421618189292,0.042123521496882976,0.004601942363656963,-0.010737865515199285,-0.11198059751565159,-0.1150485590914232,-0.031409108843507116,-0.049893236452909925,-0.008828911645830613,0.10657553098838204,0.05692773146153386,-0.00422696928217365,-0.030884146529430875
18.197762224,0.0,0.0,0.15271630954950383,-0.015271630954950384,0.08617563181722002,-0.06940029366802403,0.03061777661824589,-0.9971189252008745,1.0,1.0,-0.07671776931843206,-0.0,0.07671776931843206,-0.0,-0.0,0.15343553863686413,-0.0,0.0,0.0,0.07671776931843206,0.0,-0.2301533079552962,0.0,0.07671776931843206,0.07377758622169495,0.0076939016580581665,0.16604971885681152,0.17530544102191925,0.10344778001308441,0.45557427406311035,0.09916925430297852,-0.10109035670757294,-0.15360309183597565,-0.045835502445697784,-0.057935651391744614,0.020931154489517212,0.09490946680307388,0.1598454713821411,0.020887857535853982,0.12409652397036552,0.04989000968635082,0.004556450992822647,-0.029988590627908707,-0.09397514164447784,-0.11710295081138611,-0.025272589176893234,-0.03840077295899391,-0.007270085625350475,0.10768913570791483,0.016926494427025318,-0.015542542561888695,-0.01588916778564453,0.020887857535853982,0.12409652397036552,0.04989000968635082,0.0,-0.029988590627908707,-0.09397514164447784,-0.11710295081138611,-0.025272589176893234,-0.03840077295899391,-0.007270085625350475,0.10768913570791483,0.016926494427025318,-0.015542542561888695,-0.01588916778564453,0.015544338650574627,0.129421618189292,0.04519148307265458,0.004601942363656963,-0.010737865515199285,-0.10891263593988043,-0.1150485590914232,-0.031409108843507116,-0.049893236452909925,-0.005760950070059452,0.10657553098838204,0.0523257890978769,-0.00422696928217365,-0.029350165741545073
18.217630227,0.0,0.0,0.13853550937704992,-0.14726215563702155,0.11562806294462433,-0.06940448675094199,0.02857831807391729,-0.9971791699363282,1.0,1.0,-0.07671776931843206,-0.0,0.07671776931843206,-0.0,-0.0,0.15343553863686413,-0.0,0.0,0.0,0.07671776931843206,0.0,-0.2301533079552962,0.0,0.07671776931843206,0.06738035380840302,0.010725948959589005,0.19403573870658875,0.18565437197685242,0.11805153638124466,0.4454314708709717,0.07367879152297974,-0.0964023619890213,-0.1654682159423828,-0.04089822992682457,-0.054883379489183426,0.015174977481365204,0.10333094000816345,0.17601531744003296,0.019288549432531,0.12485453579574823,0.05688651464879513,0.007143683731555939,-0.026337651535868645,-0.09651084244251251,-0.1234755665063858,-0.024100590497255325,-0.0413670539855957,-0.006035767495632172,0.10845220368355513,0.015487450174987316,-0.013437174260616302,-0.01184670627117157,0.019288549432531,0.12485453579574823,0.05688651464879513,0.0,-0.026337651535868645,-0.09651084244251251,-0.1234755665063858,-0.024100590497255325,-0.0413670539855957,-0.006035767495632172,0.10845220368355513,0.015487450174987316,-0.013437174260616302,-0.01184670627117157,0.014010357862688824,0.129421618189292,0.04672546386053994,0.004601942363656963,-0.010737865515199285,-0.10584467436410927,-0.1150485590914232,-0.031409108843507116,-0.049893236452909925,-0.00422696928217365,0.10657553098838204,0.047723846734219935,-0.00422696928217365,-0.027816184953659714
18.237649376000007,0.0,0.0,0.05890486225480862,-0.007635815477475192,0.09926560120717749,-0.06940839133901303,0.026538502570799097,-0.9972352696796429,1.0,1.0,0.0,-0.0,0.07671776931843206,-0.0,-0.0,0.07671776931843206,-0.0,0.0,0.0,0.07671776931843206,0.0,-0.2301533079552962,0.0,0.07671776931843206,0.06566877663135529,0.012181177735328674,0.17278267443180084,0.1816122829914093,0.10384035110473633,0.4739556312561035,0.09011390805244446,-0.09623396396636963,-0.1653890311717987,-0.03495097905397415,-0.05714729055762291,0.013663157820701599,0.09100044518709183,0.16324613988399506,0.018860655138269067,0.12521834298968315,0.05157324858009815,0.00613316148519516,-0.029890447854995728,-0.08937980234622955,-0.11936678737401962,-0.024058490991592407,-0.041347257792949677,-0.004548954777419567,0.10788622591644526,0.015109495259821415,-0.01651979796588421,-0.015039000660181046,0.018860655138269067,0.12521834298968315,0.05157324858009815,0.0,-0.029890447854995728,-0.08937980234622955,-0.11936678737401962,-0.024058490991592407,-0.041347257792949677,-0.004548954777419567,0.10788622591644526,0.015109495259821415,-0.01651979796588421,-0.015039000660181046,0.014010357862688824,0.129421618189292,0.04672546386053994,0.004601942363656963,-0.010737865515199285,-0.10277671278833811,-0.1150485590914232,-0.031409108843507116,-0.049893236452909925,-0.00422696928217365,0.10657553098838204,0.044655885158448774,-0.00422696928217365,-0.027816184953659714
18.258735489999992,0.0,0.0,0.007635815477475192,-0.006544984694978736,0.0545415391248228,-0.06940839133901303,0.026538502570799097,-0.9972352696796429,1.0,1.0,0.0,-0.0,-0.0,-0.0,-0.07671776931843206,0.15343553863686413,-0.0,0.07671776931843206,0.0,-0.0,0.0,-0.15343553863686413,0.0,0.0,0.0672016441822052,0.016844654455780983,0.1693713366985321,0.18799853324890137,0.10411828011274338,0.47926896810531616,0.09332047402858734,-0.09375394880771637,-0.16978462040424347,-0.03176465258002281,-0.05675070360302925,0.016384363174438477,0.09480556845664978,0.16924607753753662,0.019243872025981545,0.12638421216979623,0.05072041414678097,0.007729724049568176,-0.029820965602993965,-0.08805146813392639,-0.1185651458799839,-0.023438487201929092,-0.04244615510106087,-0.003752373158931732,0.10798537265509367,0.015789796598255634,-0.01556851714849472,-0.013539016246795654,0.019243872025981545,0.12638421216979623,0.05072041414678097,0.0,-0.029820965602993965,-0.08805146813392639,-0.1185651458799839,-0.023438487201929092,-0.04244615510106087,-0.003752373158931732,0.10798537265509367,0.015789796598255634,-0.01556851714849472,-0.013539016246795654,0.012476377074803022,0.129421618189292,0.04672546386053994,0.004601942363656963,-0.012271846303085088,-0.1012427320004523,-0.1150485590914232,-0.029875128055621758,-0.049893236452909925,-0.00422696928217365,0.10657553098838204,0.04312190437056297,-0.00422696928217365,-0.026282204165773912
18.278339961,0.0,0.0,-0.011999138607461015,-0.007635815477475192,0.03599741582238305,-0.06940839133901303,0.026538502570799097,-0.9972352696796429,1.0,1.0,-0.07671776931843206,-0.0,-0.0,-0.0,-0.0,0.15343553863686413,-0.0,0.0,0.0,-0.0,0.0,-0.07671776931843206,0.0,0.15343553863686413,0.06534869968891144,0.02460537478327751,0.15588702261447906,0.18565310537815094,0.0971003919839859,0.492834210395813,0.10129658877849579,-0.09325525164604187,-0.17196354269981384,-0.028535261750221252,-0.056583259254693985,0.015866070985794067,0.09742927551269531,0.17189478874206543,0.018780635902658105,0.12832439225167036,0.04734933562576771,0.0071433670818805695,-0.031575437635183334,-0.08466015756130219,-0.11657111719250679,-0.023313812911510468,-0.04299088567495346,-0.0029450254514813423,0.10802723374217749,0.015660223551094532,-0.014912590384483337,-0.012876838445663452,0.018780635902658105,0.12832439225167036,0.04734933562576771,0.0,-0.031575437635183334,-0.08466015756130219,-0.11657111719250679,-0.023313812911510468,-0.04299088567495346,-0.0029450254514813423,0.10802723374217749,0.015660223551094532,-0.014912590384483337,-0.012876838445663452,0.012476377074803022,0.129421618189292,0.04672546386053994,0.004601942363656963,-0.012271846303085088,-0.09817477042468115,-0.1150485590914232,-0.029875128055621758,-0.049893236452909925,-0.002692988494288291,0.10657553098838204,0.04005394279479181,-0.00422696928217365,-0.02321424259000275
18.298393793999992,0.0,0.0,-0.03381575425739013,-0.003272492347489368,0.06217735460229799,-0.06940647511622648,0.02755845335497228,-0.9972077380669598,1.0,1.0,0.0,-0.0,-0.0,-0.0,-0.0,0.07671776931843206,-0.0,0.0,0.0,0.07671776931843206,0.0,-0.07671776931843206,0.0,0.15343553863686413,0.0660691112279892,0.026314273476600647,0.1499248445034027,0.1851719319820404,0.08891139179468155,0.505333662033081,0.11036123335361481,-0.1031731367111206,-0.17040595412254333,-0.02772204950451851,-0.05504662171006203,0.021205157041549683,0.09886534512042999,0.16606929898262024,0.018960738787427545,0.12875161692500114,0.04585879109799862,0.007023073732852936,-0.03362268768250942,-0.08153529465198517,-0.11430495604872704,-0.02579328417778015,-0.042601488530635834,-0.0027417223900556564,0.10841139312833548,0.016994995065033436,-0.014553572982549667,-0.01433321088552475,0.018960738787427545,0.12875161692500114,0.04585879109799862,0.0,-0.03362268768250942,-0.08153529465198517,-0.11430495604872704,-0.02579328417778015,-0.042601488530635834,-0.0027417223900556564,0.10841139312833548,0.016994995065033436,-0.014553572982549667,-0.01433321088552475,0.012476377074803022,0.129421618189292,0.04672546386053994,0.004601942363656963,-0.012271846303085088,-0.09510680884890954,-0.1150485590914232,-0.029875128055621758,-0.049893236452909925,-0.002692988494288291,0.10657553098838204,0.03851996200690601,-0.00422696928217365,-0.02168026180211695
18.318644588000012,0.0,0.0,-0.03490658503988659,-0.001090830782496456,0.06217735460229799,-0.06940448675094199,0.02857831807391729,-0.9971791699363282,1.0,1.0,0.0,-0.0,-0.0,-0.0,-0.0,0.15343553863686413,-0.0,0.0,0.0,-0.0,0.0,-0.07671776931843206,0.0,0.0,0.06639187037944794,0.027272436767816544,0.1505211442708969,0.1878734678030014,0.09061778336763382,0.507365345954895,0.11022183299064636,-0.10174763202667236,-0.17143721878528595,-0.02842720039188862,-0.05410661920905113,0.024212315678596497,0.10175160318613052,0.16641446948051453,0.01904142857529223,0.12899115774780512,0.04600786603987217,0.007698457688093185,-0.033196089789271355,-0.08102737367153168,-0.11433980613946915,-0.02543690800666809,-0.04285930469632149,-0.002918010111898184,0.1086463937535882,0.01774678472429514,-0.013832008466124535,-0.014246918261051178,0.01904142857529223,0.12899115774780512,0.04600786603987217,0.0,-0.033196089789271355,-0.08102737367153168,-0.11433980613946915,-0.02543690800666809,-0.04285930469632149,-0.002918010111898184,0.1086463937535882,0.01774678472429514,-0.013832008466124535,-0.014246918261051178,0.012476377074803022,0.129421618189292,0.04672546386053994,0.004601942363656963,-0.012271846303085088,-0.09357282806102418,-0.1150485590914232,-0.029875128055621758,-0.049893236452909925,-0.002692988494288291,0.10657553098838204,0.03851996200690601,-0.00422696928217365,-0.02168026180211695
18.338555108999998,0.0,0.0,-0.05126904677733343,0.001090830782496456,0.02181661564992912,-0.06940448675094199,0.02857831807391729,-0.9971791699363282,1.0,1.0,0.0,-0.07671776931843206,-0.0,-0.0,-0.0,0.15343553863686413,-0.0,0.0,0.0,-0.0,0.0,0.0,0.07671776931843206,0.0,0.06943461298942566,0.030573811382055283,0.14349381625652313,0.18463234603405,0.08454549312591553,0.5210304260253906,0.11877462267875671,-0.10265697538852692,-0.1695694774389267,-0.021880459040403366,-0.05336799845099449,0.021338343620300293,0.10600457340478897,0.17136085033416748,0.01980211422778666,0.1298165014013648,0.044251034036278725,0.006888177245855331,-0.03471416234970093,-0.07761110365390778,-0.11220160871744156,-0.02566424384713173,-0.042392369359731674,-0.0012813247740268707,0.10883104894310236,0.01702829170972109,-0.012768765911459923,-0.01301032304763794,0.01980211422778666,0.1298165014013648,0.044251034036278725,0.0,-0.03471416234970093,-0.07761110365390778,-0.11220160871744156,-0.02566424384713173,-0.042392369359731674,-0.0012813247740268707,0.10883104894310236,0.01702829170972109,-0.012768765911459923,-0.01301032304763794,0.012476377074803022,0.12788763740140618,0.04672546386053994,0.004601942363656963,-0.012271846303085088,-0.09050486648525302,-0.1150485590914232,-0.029875128055621758,-0.049893236452909925,-0.0011590077064024887,0.10657553098838204,0.03851996200690601,-0.002692988494288291,-0.02014628101423159
18.358603979999998,0.0,0.0,-0.09817477042468103,0.001090830782496456,0.019634954084936207,-0.06940029366802403,0.03061777661824589,-0.9971189252008745,1.0,1.0,0.0,-0.0,-0.0,-0.0,-0.0,0.15343553863686413,-0.0,0.0,0.0,0.07671776931843206,0.0,0.0,0.0,0.07671776931843206,0.06633725762367249,0.038356583565473557,0.13443982601165771,0.18532633781433105,0.07949499040842056,0.5333945751190186,0.12610958516597748,-0.1061466634273529,-0.17148450016975403,-0.024787992238998413,-0.049916673451662064,0.04362446069717407,0.10966355353593826,0.16239367425441742,0.019027775386348367,0.13176219444721937,0.04198753647506237,0.007061675190925598,-0.03597678802907467,-0.0745200663805008,-0.11036786809563637,-0.026536665856838226,-0.04287112504243851,-0.0020082080736756325,0.10969388019293547,0.022599820978939533,-0.0118540208786726,-0.015252117067575455,0.019027775386348367,0.13176219444721937,0.04198753647506237,0.0,-0.03597678802907467,-0.0745200663805008,-0.11036786809563637,-0.026536665856838226,-0.04287112504243851,-0.0020082080736756325,0.10969388019293547,0.022599820978939533,-0.0118540208786726,-0.015252117067575455,0.012476377074803022,0.12788763740140618,0.04672546386053994,0.004601942363656963,-0.012271846303085088,-0.08743690490948142,-0.1150485590914232,-0.029875128055621758,-0.049893236452909925,-0.0011590077064024887,0.10657553098838204,0.03851996200690601,-0.002692988494288291,-0.02014628101423159
18.378995957,0.0,0.0,-0.055632369907319255,-0.00545415391248228,0.017453292519943295,-0.06939581224726936,0.032656852822244405,-0.9970545377291494,1.0,1.0,0.0,-0.0,-0.0,-0.0,-0.0,0.07671776931843206,-0.0,0.0,0.0,-0.0,0.0,0.0,0.0,0.0,0.06835505366325378,0.03414665162563324,0.13645565509796143,0.1830558329820633,0.07623057067394257,0.53996741771698,0.13016043603420258,-0.10574468970298767,-0.16808831691741943,-0.023804929107427597,-0.05106715112924576,0.030959218740463257,0.11018446832895279,0.1631915271282196,0.01953222439624369,0.1307097114622593,0.0424914937466383,0.006494048982858658,-0.03679289296269417,-0.07287685573101044,-0.1093551553785801,-0.026436172425746918,-0.04202207922935486,-0.0017624422907829285,0.10940626077353954,0.01943351048976183,-0.011723792180418968,-0.015052653849124908,0.01953222439624369,0.1307097114622593,0.0424914937466383,0.0,-0.03679289296269417,-0.07287685573101044,-0.1093551553785801,-0.026436172425746918,-0.04202207922935486,-0.0017624422907829285,0.10940626077353954,0.01943351048976183,-0.011723792180418968,-0.015052653849124908,0.012476377074803022,0.12788763740140618,0.04672546386053994,0.004601942363656963,-0.012271846303085088,-0.08436894333371026,-0.1135145783035374,-0.029875128055621758,-0.049893236452909925,-0.0011590077064024887,0.10657553098838204,0.03851996200690601,-0.002692988494288291,-0.02014628101423159
18.398962607000016,0.0,0.0,-0.04145156973486533,-0.007635815477475192,-0.003272492347489368,-0.0693934634622064,0.03367623962136487,-0.9970207912143477,1.0,1.0,0.0,-0.0,-0.0,-0.0,-0.0,0.15343553863686413,0.07671776931843206,0.0,0.0,-0.0,0.0,0.0,0.0,0.0,0.07168704271316528,0.032914549112319946,0.14064019918441772,0.18427467346191406,0.08206740021705627,0.5431975722312927,0.12841254472732544,-0.10499998927116394,-0.16842320561408997,-0.02090063877403736,-0.05164702236652374,0.024062074720859528,0.1126248687505722,0.16630984842777252,0.020365221658721566,0.13040168583393097,0.04353762976825237,0.00679875910282135,-0.03533368557691574,-0.07206931710243225,-0.10979212820529938,-0.026249997317790985,-0.04210580140352249,-0.0010363697074353695,0.10926129296422005,0.017709224484860897,-0.011113692075014114,-0.014273073524236679,0.020365221658721566,0.13040168583393097,0.04353762976825237,0.0,-0.03533368557691574,-0.07206931710243225,-0.10979212820529938,-0.026249997317790985,-0.04210580140352249,-0.0010363697074353695,0.10926129296422005,0.017709224484860897,-0.011113692075014114,-0.014273073524236679,0.012476377074803022,0.12788763740140618,0.04672546386053994,0.004601942363656963,-0.012271846303085088,-0.0813009817579391,-0.1135145783035374,-0.029875128055621758,-0.049893236452909925,-0.0011590077064024887,0.10657553098838204,0.03851996200690601,-0.002692988494288291,-0.02014628101423159
18.419102439,0.0,0.0,-0.039269908169872414,-0.00545415391248228,-0.004363323129985824,-0.0693910426564291,0.03469552132821455,-0.9969860099313416,1.0,1.0,0.0,-0.0,-0.0,-0.0,-0.0,0.15343553863686413,-0.0,0.0,0.0,-0.0,0.0,0.0,0.0,0.0,0.0700567215681076,0.032915323972702026,0.1341690570116043,0.17748963832855225,0.0712290033698082,0.5593670606613159,0.1383320540189743,-0.10285800695419312,-0.16367597877979279,-0.02092922478914261,-0.052970003336668015,0.023560598492622375,0.10917851328849792,0.1604347974061966,0.019957641372457147,0.1304018795490265,0.04191984422504902,0.005102500319480896,-0.03804328478872776,-0.06802694499492645,-0.10731225088238716,-0.02571450173854828,-0.040918994694948196,-0.0010435162112116814,0.10893054772168398,0.01758385542780161,-0.011975280940532684,-0.01574183627963066,0.019957641372457147,0.1304018795490265,0.04191984422504902,0.0,-0.03804328478872776,-0.06802694499492645,-0.10731225088238716,-0.02571450173854828,-0.040918994694948196,-0.0010435162112116814,0.10893054772168398,0.01758385542780161,-0.011975280940532684,-0.01574183627963066,0.012476377074803022,0.12788763740140618,0.04672546386053994,0.004601942363656963,-0.012271846303085088,-0.07823302018216749,-0.11198059751565159,-0.029875128055621758,-0.049893236452909925,-0.0011590077064024887,0.10657553098838204,0.03851996200690601,-0.002692988494288291,-0.02014628101423159
18.439501045000014,0.0,0.0,-0.017453292519943295,-0.006544984694978736,-0.004363323129985824,-0.0693910426564291,0.03469552132821455,-0.9969860099313416,1.0,1.0,0.0,-0.0,-0.0,-0.0,-0.0,0.15343553863686413,0.07671776931843206,0.0,0.0,-0.0,0.0,0.0,0.0,0.0,0.0714266449213028,0.02993304654955864,0.13729125261306763,0.1773039698600769,0.07303988933563232,0.5601655840873718,0.13845668733119965,-0.1026502251625061,-0.1626737266778946,-0.020641623064875603,-0.051770418882369995,0.01869545504450798,0.1110425814986229,0.16198931634426117,0.020300122210755944,0.12965631019324064,0.04270039312541485,0.0050560832023620605,-0.03759056329727173,-0.06782731413841248,-0.10728109255433083,-0.025662556290626526,-0.04066843166947365,-0.0009716157801449299,0.10923044383525848,0.01636756956577301,-0.011509263888001442,-0.015353206545114517,0.020300122210755944,0.12965631019324064,0.04270039312541485,0.0,-0.03759056329727173,-0.06782731413841248,-0.10728109255433083,-0.025662556290626526,-0.04066843166947365,-0.0009716157801449299,0.10923044383525848,0.01636756956577301,-0.011509263888001442,-0.015353206545114517,0.012476377074803022,0.12788763740140618,0.04672546386053994,0.004601942363656963,-0.012271846303085088,-0.07669903939428213,-0.11198059751565159,-0.029875128055621758,-0.049893236452909925,-0.0011590077064024887,0.10657553098838204,0.03851996200690601,-0.002692988494288291,-0.02014628101423159
18.459380011999997,0.0,0.0,-0.004363323129985824,-0.007635815477475192,0.00545415391248228,-0.0693910426564291,0.03469552132821455,-0.9969860099313416,1.0,1.0,0.0,-0.0,-0.0,-0.0,-0.0,0.07671776931843206,-0.0,0.0,0.0,-0.0,0.0,0.0,0.0,0.0,0.07030120491981506,0.028975430876016617,0.1350593864917755,0.17310830950737,0.06856349855661392,0.5707857012748718,0.14375106990337372,-0.10092011094093323,-0.16029749810695648,-0.020179040729999542,-0.052810121327638626,0.01674288883805275,0.10800251364707947,0.15731358528137207,0.02001876221038401,0.12941690627485514,0.04214242659509182,0.004007168114185333,-0.03870966099202633,-0.06517228484153748,-0.10595749691128731,-0.025230027735233307,-0.04007437452673912,-0.0008559701964259148,0.10897051822394133,0.015879428014159203,-0.012269280850887299,-0.016522139310836792,0.02001876221038401,0.12941690627485514,0.04214242659509182,0.0,-0.03870966099202633,-0.06517228484153748,-0.10595749691128731,-0.025230027735233307,-0.04007437452673912,-0.0008559701964259148,0.10897051822394133,0.015879428014159203,-0.012269280850887299,-0.016522139310836792,0.012476377074803022,0.12788763740140618,0.04672546386053994,0.004601942363656963,-0.012271846303085088,-0.07363107781851097,-0.11044661672776623,-0.029875128055621758,-0.049893236452909925,-0.0011590077064024887,0.10657553098838204,0.03851996200690601,-0.002692988494288291,-0.02014628101423159
18.479446233999994,0.0,0.0,-0.055632369907319255,-0.007635815477475192,-0.011999138607461015,-0.06938854985258178,0.035714694777064154,-0.9969501942054763,1.0,1.0,0.0,-0.0,-0.0,-0.0,-0.0,0.15343553863686413,0.07671776931843206,0.0,0.0,-0.0,0.0,0.0,0.0,0.0,0.07143363356590271,0.03294380009174347,0.13399061560630798,0.17957067489624023,0.07461318373680115,0.5759868025779724,0.14442889392375946,-0.09963253140449524,-0.16003811359405518,-0.018516039475798607,-0.04802613705396652,0.02369869500398636,0.11306746304035187,0.16066938638687134,0.020301869371905923,0.13040899857878685,0.04187523387372494,0.005622759461402893,-0.03719723969697952,-0.06387200951576233,-0.10578804090619087,-0.02490813285112381,-0.040009528398513794,-0.0004402198828756809,0.11016651429235935,0.017618379555642605,-0.011003043502569199,-0.015683189034461975,0.020301869371905923,0.13040899857878685,0.04187523387372494,0.0,-0.03719723969697952,-0.06387200951576233,-0.10578804090619087,-0.02490813285112381,-0.040009528398513794,-0.0004402198828756809,0.11016651429235935,0.017618379555642605,-0.011003043502569199,-0.015683189034461975,0.012476377074803022,0.12788763740140618,0.04672546386053994,0.004601942363656963,-0.012271846303085088,-0.07056311624273937,-0.11044661672776623,-0.029875128055621758,-0.04835925566502412,-0.0011590077064024887,0.10657553098838204,0.03851996200690601,-0.002692988494288291,-0.02014628101423159
18.49966343599999,0.0,0.0,-0.11126473981463851,0.0,-0.006544984694978736,-0.07040134630546323,0.03673113720285038,-0.9968422513106894,1.0,1.0,0.0,-0.0,-0.0,-0.0,0.07671776931843206,0.2301533079552962,-0.0,0.0,0.07671776931843206,-0.0,0.0,0.0,0.0,0.0,0.06764093041419983,0.040906988084316254,0.11976730823516846,0.17665106058120728,0.06121036410331726,0.5956568121910095,0.15551112592220306,-0.09748657047748566,-0.15417426824569702,-0.017697004601359367,-0.044467534869909286,0.03856372833251953,0.11345361173152924,0.15625602006912231,0.019353693583980203,0.13239979557693005,0.038319407030940056,0.004892855882644653,-0.040547944605350494,-0.05895450711250305,-0.10301748290657997,-0.024371642619371414,-0.038543567061424255,-0.00023546116426587105,0.11105616483837366,0.021334637887775898,-0.010906506329774857,-0.01678653061389923,0.019353693583980203,0.13239979557693005,0.038319407030940056,0.0,-0.040547944605350494,-0.05895450711250305,-0.10301748290657997,-0.024371642619371414,-0.038543567061424255,-0.00023546116426587105,0.11105616483837366,0.021334637887775898,-0.010906506329774857,-0.01678653061389923,0.012476377074803022,0.12788763740140618,0.04672546386053994,0.004601942363656963,-0.010737865515199285,-0.0674951546669682,-0.11044661672776623,-0.029875128055621758,-0.04835925566502412,-0.0011590077064024887,0.10657553098838204,0.03851996200690601,-0.002692988494288291,-0.02014628101423159
18.519586031000017,0.0,0.0,-0.11562806294462433,-0.004363323129985824,0.006544984694978736,-0.07039592347221368,0.0387687694484655,-0.9967654671355473,1.0,1.0,0.0,-0.0,-0.0,-0.0,-0.0,0.07671776931843206,-0.0,0.0,0.0,-0.0,0.0,0.0,0.0,0.0,0.06619499623775482,0.04266370087862015,0.11494806408882141,0.17495617270469666,0.051061827689409256,0.6066707372665405,0.1618937999010086,-0.09638051688671112,-0.14767685532569885,-0.017963731661438942,-0.041335225105285645,0.04542989283800125,0.11923674494028091,0.15654657781124115,0.01899221003986895,0.13283897377550602,0.037114595994353294,0.004469133913516998,-0.043085078708827496,-0.0562010258436203,-0.10142181441187859,-0.02409512922167778,-0.03691921383142471,-0.0003021429292857647,0.11183924227952957,0.023051179014146328,-0.009460723027586937,-0.016713891178369522,0.01899221003986895,0.13283897377550602,0.037114595994353294,0.0,-0.043085078708827496,-0.0562010258436203,-0.10142181441187859,-0.02409512922167778,-0.03691921383142471,-0.0003021429292857647,0.11183924227952957,0.023051179014146328,-0.009460723027586937,-0.016713891178369522,0.012476377074803022,0.12788763740140618,0.04672546386053994,0.004601942363656963,-0.010737865515199285,-0.06442719309119704,-0.11044661672776623,-0.029875128055621758,-0.04835925566502412,-0.0011590077064024887,0.10657553098838204,0.03851996200690601,-0.0011590077064024887,-0.02014628101423159
18.539658013999997,0.0,0.0,-0.10362892433716332,-0.003272492347489368,0.02945243112740431,-0.07039020886917963,0.04080591818503167,-0.9966845516693983,1.0,1.0,0.0,-0.0,-0.0,-0.0,-0.0,0.2301533079552962,-0.0,0.0,0.0,-0.0,0.0,0.0,0.07671776931843206,0.0,0.06737229228019714,0.04373987391591072,0.122353196144104,0.17894667387008667,0.058270130306482315,0.6078886985778809,0.15933255851268768,-0.09692974388599396,-0.15162165462970734,-0.016042903065681458,-0.03935600817203522,0.04221007972955704,0.12205422669649124,0.15956038236618042,0.01928653405047953,0.13310801703482866,0.03896587900817394,0.005466759204864502,-0.04128300305455923,-0.05589653551578522,-0.10206212475895882,-0.02423243597149849,-0.037905413657426834,0.00017806421965360641,0.11233404651284218,0.022246225737035275,-0.008756352588534355,-0.015960440039634705,0.01928653405047953,0.13310801703482866,0.03896587900817394,0.0,-0.04128300305455923,-0.05589653551578522,-0.10206212475895882,-0.02423243597149849,-0.037905413657426834,0.00017806421965360641,0.11233404651284218,0.022246225737035275,-0.008756352588534355,-0.015960440039634705,0.012476377074803022,0.12788763740140618,0.04825944464842574,0.004601942363656963,-0.010737865515199285,-0.06135923151542544,-0.11044661672776623,-0.029875128055621758,-0.04835925566502412,-0.0011590077064024887,0.10657553098838204,0.03851996200690601,-0.0011590077064024887,-0.018612300226345788
18.55998147599999,0.0,0.0,-0.09926560120717749,0.002181661564992912,0.030543261909900768,-0.07038420270991043,0.042842558171249816,-0.9965995079359778,1.0,1.0,0.0,-0.0,0.07671776931843206,-0.0,-0.0,0.15343553863686413,-0.0,0.0,0.0,-0.0,0.0,0.07671776931843206,0.0,0.07671776931843206,0.06292104721069336,0.04535737261176109,0.11393727362155914,0.1711048185825348,0.04242660105228424,0.6279287934303284,0.17115865647792816,-0.09615202248096466,-0.14705048501491547,-0.01873962953686714,-0.040779128670692444,0.047866977751255035,0.11979584395885468,0.15099243819713593,0.018173722783103585,0.13351239170879126,0.03686189837753773,0.003506295382976532,-0.04524388536810875,-0.05088651180267334,-0.0991056002676487,-0.024038005620241165,-0.03676262125372887,-0.0004961173981428146,0.11197826638817787,0.023660450242459774,-0.009320948272943497,-0.018102426081895828,0.018173722783103585,0.13351239170879126,0.03686189837753773,0.0,-0.04524388536810875,-0.05088651180267334,-0.0991056002676487,-0.024038005620241165,-0.03676262125372887,-0.0004961173981428146,0.11197826638817787,0.023660450242459774,-0.009320948272943497,-0.018102426081895828,0.012476377074803022,0.12788763740140618,0.04825944464842574,0.006135923151542766,-0.010737865515199285,-0.05675728915176892,-0.11044661672776623,-0.029875128055621758,-0.04835925566502412,-0.0011590077064024887,0.10657553098838204,0.04005394279479181,-0.0011590077064024887,-0.018612300226345788
18.579982629,0.0,0.0,-0.0719948316447661,0.002181661564992912,0.018544123302439753,-0.07037790521875091,0.04487866419746435,-0.9965103391118788,1.0,1.0,0.0,-0.0,-0.0,0.07671776931843206,-0.0,0.15343553863686413,0.07671776931843206,0.0,0.0,-0.0,0.0,0.0,0.0,0.0,0.06571595370769501,0.041145000606775284,0.12131020426750183,0.17146067321300507,0.045698076486587524,0.6290730237960815,0.1729113906621933,-0.0987120270729065,-0.1474946141242981,-0.01803920418024063,-0.041696373373270035,0.040036581456661224,0.1204504743218422,0.1498255729675293,0.018872449407353997,0.1324592987075448,0.0387051310390234,0.003595259040594101,-0.04442601650953293,-0.050600454211235046,-0.09866741672158241,-0.024678006768226624,-0.036873653531074524,-0.000321011058986187,0.11174895521253347,0.02170285116881132,-0.009157290682196617,-0.018394142389297485,0.018872449407353997,0.1324592987075448,0.0387051310390234,0.0,-0.04442601650953293,-0.050600454211235046,-0.09866741672158241,-0.024678006768226624,-0.036873653531074524,-0.000321011058986187,0.11174895521253347,0.02170285116881132,-0.009157290682196617,-0.018394142389297485,0.012476377074803022,0.12788763740140618,0.04825944464842574,0.006135923151542766,-0.010737865515199285,-0.05522330836388312,-0.10737865515199507,-0.029875128055621758,-0.04835925566502412,-0.0011590077064024887,0.10657553098838204,0.04005394279479181,-0.0011590077064024887,-0.018612300226345788
18.599997781000013,0.0,0.0,-0.05345070834232634,0.002181661564992912,-0.001090830782496456,-0.07037464729676628,0.0458965091065867,-0.9964642088252267,1.0,1.0,0.0,-0.0,-0.0,-0.0,0.07671776931843206,0.07671776931843206,0.15343553863686413,0.0,0.0,-0.0,0.0,0.0,0.0,0.0,0.06616345047950745,0.03952614963054657,0.11738443374633789,0.16597354412078857,0.039255540817976,0.6427735090255737,0.1829717606306076,-0.09532895684242249,-0.14510183036327362,-0.017258264124393463,-0.044665612280368805,0.030713781714439392,0.11762113124132156,0.15169623494148254,0.018984323600307107,0.13205458596348763,0.037723688408732414,0.002223476767539978,-0.04603665042668581,-0.047175332903862,-0.09615232422947884,-0.02383223921060562,-0.036275457590818405,-0.000125776045024395,0.11100664548575878,0.019372151233255863,-0.009864626452326775,-0.017926476895809174,0.018984323600307107,0.13205458596348763,0.037723688408732414,0.0,-0.04603665042668581,-0.047175332903862,-0.09615232422947884,-0.02383223921060562,-0.036275457590818405,-0.000125776045024395,0.11100664548575878,0.019372151233255863,-0.009864626452326775,-0.017926476895809174,0.012476377074803022,0.12788763740140618,0.04825944464842574,0.006135923151542766,-0.009203884727313927,-0.052155346788111956,-0.10431069357622347,-0.029875128055621758,-0.04835925566502412,-0.0011590077064024887,0.10657553098838204,0.04005394279479181,-0.0011590077064024887,-0.018612300226345788
18.621352763999994,0.0,0.0,-0.02945243112740431,-0.001090830782496456,-0.009817477042468103,-0.07037464729676628,0.0458965091065867,-0.9964642088252267,1.0,1.0,0.0,-0.0,-0.0,-0.0,-0.0,0.15343553863686413,0.15343553863686413,0.0,0.0,-0.0,0.0,0.0,0.0,0.0,0.07273386418819427,0.036089107394218445,0.11767570674419403,0.1631336808204651,0.03841583430767059,0.6524912118911743,0.1883956640958786,-0.09482091665267944,-0.14327573776245117,-0.01684555783867836,-0.04689188301563263,0.024254560470581055,0.11572103947401047,0.14896026253700256,0.020626927027478814,0.1311953254044056,0.03779650665819645,0.0015135109424591064,-0.04624657705426216,-0.04474590718746185,-0.09479634836316109,-0.02370522916316986,-0.03581893444061279,-2.25994735956192e-05,0.11045007780194283,0.01775734592229128,-0.010339649394154549,-0.01861046999692917,0.020626927027478814,0.1311953254044056,0.03779650665819645,0.0,-0.04624657705426216,-0.04474590718746185,-0.09479634836316109,-0.02370522916316986,-0.03581893444061279,-2.25994735956192e-05,0.11045007780194283,0.01775734592229128,-0.010339649394154549,-0.01861046999692917,0.014010357862688824,0.12788763740140618,0.04825944464842574,0.006135923151542766,-0.009203884727313927,-0.04908738521234035,-0.1012427320004523,-0.029875128055621758,-0.04835925566502412,-0.0011590077064024887,0.10657553098838204,0.04005394279479181,-0.0011590077064024887,-0.018612300226345788
18.641242140000003,0.0,0.0,0.001090830782496456,-0.002181661564992912,-0.018544123302439753,-0.07037131663081822,0.04691421108721215,-0.9964170485262231,1.0,1.0,0.07671776931843206,-0.0,-0.0,-0.0,-0.0,0.15343553863686413,0.15343553863686413,0.0,0.0,-0.0,0.0,0.0,0.0,0.0,0.0733199268579483,0.032457854598760605,0.11568933725357056,0.15680888295173645,0.03357299789786339,0.6634465456008911,0.19769053161144257,-0.09373718500137329,-0.1396491378545761,-0.017317557707428932,-0.047842931002378464,0.01603325456380844,0.11311668902635574,0.14528492093086243,0.02077344269491732,0.13028751220554113,0.03729991428554058,-6.768852472305298e-05,-0.04745728615671396,-0.042007073760032654,-0.0924726314842701,-0.023434296250343323,-0.03491228446364403,-0.00014059944078326225,0.11021231580525637,0.015702019445598125,-0.01099073700606823,-0.019529305398464203,0.02077344269491732,0.13028751220554113,0.03729991428554058,-6.768852472305298e-05,-0.04745728615671396,-0.042007073760032654,-0.0924726314842701,-0.023434296250343323,-0.03491228446364403,-0.00014059944078326225,0.11021231580525637,0.015702019445598125,-0.01099073700606823,-0.019529305398464203,0.014010357862688824,0.12788763740140618,0.04825944464842574,0.006135923151542766,-0.009203884727313927,-0.04601942363656919,-0.09817477042468115,-0.029875128055621758,-0.04835925566502412,-0.0011590077064024887,0.10657553098838204,0.04005394279479181,-0.0011590077064024887,-0.018612300226345788
18.661319587999998,0.0,0.0,0.02181661564992912,-0.001090830782496456,-0.02181661564992912,-0.07037131663081822,0.04691421108721215,-0.9964170485262231,1.0,1.0,0.0,-0.0,-0.0,-0.0,-0.0,0.15343553863686413,0.07671776931843206,0.0,0.0,-0.0,0.0,0.0,0.0,0.0,0.07287780940532684,0.02997828647494316,0.11691656708717346,0.15368030965328217,0.0325351282954216,0.6691904067993164,0.2029142528772354,-0.09173096716403961,-0.13838256895542145,-0.01749521493911743,-0.04874134808778763,0.011811606585979462,0.11207053810358047,0.14268723130226135,0.020662913331761956,0.12966762017458677,0.03760672174394131,-0.0008498318493366241,-0.04771675355732441,-0.04057110846042633,-0.09116670116782188,-0.022932741791009903,-0.03459564223885536,-0.00018501374870538712,0.10998771153390408,0.01464660745114088,-0.011252274736762047,-0.02017872780561447,0.020662913331761956,0.12966762017458677,0.03760672174394131,-0.0008498318493366241,-0.04771675355732441,-0.04057110846042633,-0.09116670116782188,-0.022932741791009903,-0.03459564223885536,-0.00018501374870538712,0.10998771153390408,0.01464660745114088,-0.011252274736762047,-0.02017872780561447,0.014010357862688824,0.12788763740140618,0.04825944464842574,0.006135923151542766,-0.009203884727313927,-0.04448544284868339,-0.09510680884890954,-0.029875128055621758,-0.04835925566502412,-0.0011590077064024887,0.10657553098838204,0.04005394279479181,-0.0011590077064024887,-0.018612300226345788
18.681493923000005,0.0,0.0,0.013089969389957472,-0.002181661564992912,-0.018544123302439753,-0.07037131663081822,0.04691421108721215,-0.9964170485262231,1.0,1.0,0.0,-0.0,-0.0,-0.0,-0.07671776931843206,-0.0,0.2301533079552962,0.0,0.0,-0.0,0.0,0.0,0.0,0.0,0.0738377571105957,0.029785092920064926,0.11916482448577881,0.1558074802160263,0.03397208824753761,0.6702778935432434,0.20622365176677704,-0.09188994765281677,-0.13823533058166504,-0.01670076884329319,-0.046208277344703674,0.009923826903104782,0.11398185044527054,0.14529047906398773,0.02090290025807917,0.12961932178586721,0.038168786093592644,-0.000318039208650589,-0.047357513569295406,-0.04029923677444458,-0.09033935144543648,-0.022972486913204193,-0.03455883264541626,1.3597775250673294e-05,0.11062097921967506,0.01417466253042221,-0.010774446651339531,-0.019527915865182877,0.02090290025807917,0.12961932178586721,0.038168786093592644,-0.000318039208650589,-0.047357513569295406,-0.04029923677444458,-0.09033935144543648,-0.022972486913204193,-0.03455883264541626,1.3597775250673294e-05,0.11062097921967506,0.01417466253042221,-0.010774446651339531,-0.019527915865182877,0.014010357862688824,0.12788763740140618,0.04825944464842574,0.006135923151542766,-0.010737865515199285,-0.04295146206079803,-0.09357282806102418,-0.029875128055621758,-0.04835925566502412,-0.0011590077064024887,0.10657553098838204,0.04005394279479181,-0.0011590077064024887,-0.018612300226345788
18.701474149999996,0.0,0.0,0.0272707695624114,-0.009817477042468103,0.00545415391248228,-0.07037464729676628,0.0458965091065867,-0.9964642088252267,1.0,1.0,0.0,-0.0,-0.0,-0.0,-0.0,0.15343553863686413,0.07671776931843206,0.0,0.0,-0.0,0.0,0.0,0.0,0.0,0.07345280051231384,0.02877849154174328,0.1214943677186966,0.15666142106056213,0.040048737078905106,0.6748477220535278,0.20439355075359344,-0.0909603089094162,-0.13967765867710114,-0.014728691428899765,-0.04654579609632492,0.009158369153738022,0.11162076145410538,0.14108619093894958,0.020806661108508706,0.1293676714412868,0.03875117190182209,-0.00010455399751663208,-0.04583835136145353,-0.039156779646873474,-0.09079687669873238,-0.02274007722735405,-0.034919414669275284,0.0005066171288490295,0.11053659953176975,0.01398329809308052,-0.011364718899130821,-0.020578987896442413,0.020806661108508706,0.1293676714412868,0.03875117190182209,-0.00010455399751663208,-0.04583835136145353,-0.039156779646873474,-0.09079687669873238,-0.02274007722735405,-0.034919414669275284,0.0005066171288490295,0.11053659953176975,0.01398329809308052,-0.011364718899130821,-0.020578987896442413,0.014010357862688824,0.12788763740140618,0.04825944464842574,0.006135923151542766,-0.010737865515199285,-0.03988350048502687,-0.09203884727313838,-0.029875128055621758,-0.04835925566502412,-0.0011590077064024887,0.10657553098838204,0.04005394279479181,-0.0011590077064024887,-0.018612300226345788
18.72153091199999,0.0,0.0,0.004363323129985824,-0.00545415391248228,0.008726646259971648,-0.07037464729676628,0.0458965091065867,-0.9964642088252267,1.0,1.0,0.0,-0.0,-0.0,-0.0,-0.0,0.15343553863686413,-0.0,0.0,0.0,-0.0,0.0,0.0,0.0,0.0,0.07157936692237854,0.030668824911117554,0.11684302985668182,0.1552089899778366,0.03218255937099457,0.6836526393890381,0.2119593471288681,-0.0884084403514862,-0.13821528851985931,-0.015224091708660126,-0.0449906550347805,0.010596632957458496,0.11226917803287506,0.1413230001926422,0.02033830271102488,0.12984025478363037,0.0375883374363184,-0.0004676617681980133,-0.04780489578843117,-0.03695555031299591,-0.08890542760491371,-0.02210211008787155,-0.03455382212996483,0.00038276705890893936,0.11092538479715586,0.01434286404401064,-0.0112026147544384,-0.020519785583019257,0.02033830271102488,0.12984025478363037,0.0375883374363184,-0.0004676617681980133,-0.04780489578843117,-0.03695555031299591,-0.08890542760491371,-0.02210211008787155,-0.03455382212996483,0.00038276705890893936,0.11092538479715586,0.01434286404401064,-0.0112026147544384,-0.020519785583019257,0.014010357862688824,0.12788763740140618,0.04825944464842574,0.006135923151542766,-0.010737865515199285,-0.038349519697141066,-0.09203884727313838,-0.029875128055621758,-0.04835925566502412,-0.0011590077064024887,0.10657553098838204,0.04005394279479181,-0.0011590077064024887,-0.018612300226345788
18.74169419200001,0.0,0.0,0.0,-0.006544984694978736,0.004363323129985824,-0.07037464729676628,0.0458965091065867,-0.9964642088252267,1.0,1.0,0.0,-0.0,-0.0,-0.0,-0.0,-0.0,-0.0,0.0,0.0,-0.0,0.0,0.0,0.0,0.0,0.07218551635742188,0.031055450439453125,0.11814430356025696,0.15795132517814636,0.034256890416145325,0.6806994080543518,0.21183393895626068,-0.08887265622615814,-0.1387321650981903,-0.01565457694232464,-0.04341977462172508,0.01047084853053093,0.11513354629278183,0.14448097348213196,0.020489840069785714,0.12993691116571426,0.03791365586221218,0.00021792203187942505,-0.04728631302714348,-0.03769385814666748,-0.08893677964806557,-0.022218164056539536,-0.03468304127454758,0.0002751457504928112,0.11131810490041971,0.014311417937278748,-0.010486522689461708,-0.01973029226064682,0.020489840069785714,0.12993691116571426,0.03791365586221218,0.0,-0.04728631302714348,-0.03769385814666748,-0.08893677964806557,-0.022218164056539536,-0.03468304127454758,0.0002751457504928112,0.11131810490041971,0.014311417937278748,-0.010486522689461708,-0.01973029226064682,0.014010357862688824,0.12788763740140618,0.04825944464842574,0.006135923151542766,-0.010737865515199285,-0.038349519697141066,-0.09203884727313838,-0.029875128055621758,-0.04835925566502412,-0.0011590077064024887,0.10657553098838204,0.04005394279479181,-0.0011590077064024887,-0.018612300226345788
18.761696991999997,0.0,0.0,-0.02945243112740431,-0.003272492347489368,0.022907446432425576,-0.07037131663081822,0.04691421108721215,-0.9964170485262231,1.0,1.0,0.0,-0.0,-0.0,-0.0,-0.0,-0.0,-0.0,0.0,0.0,-0.0,0.0,0.0,0.0,0.0,0.07190696895122528,0.03395358473062515,0.1212359368801117,0.16534365713596344,0.04355355352163315,0.6753693222999573,0.20633463561534882,-0.08774513006210327,-0.14226476848125458,-0.014884395524859428,-0.0415598601102829,0.01631702110171318,0.11897655576467514,0.14880500733852386,0.020420203218236566,0.13066144473850727,0.038686564192175865,0.0020660050213336945,-0.04496214725077152,-0.03902637958526611,-0.09031160548329353,-0.021936282515525818,-0.035566192120313644,0.0004676911048591137,0.11178308352828026,0.01577296108007431,-0.00952577032148838,-0.018649283796548843,0.020420203218236566,0.13066144473850727,0.038686564192175865,0.0,-0.04496214725077152,-0.03902637958526611,-0.09031160548329353,-0.021936282515525818,-0.035566192120313644,0.0004676911048591137,0.11178308352828026,0.01577296108007431,-0.00952577032148838,-0.018649283796548843,0.014010357862688824,0.12788763740140618,0.04825944464842574,0.006135923151542766,-0.010737865515199285,-0.038349519697141066,-0.09203884727313838,-0.029875128055621758,-0.04835925566502412,-0.0011590077064024887,0.10657553098838204,0.04005394279479181,-0.0011590077064024887,-0.018612300226345788
18.781764643000002,0.0,0.0,-0.030543261909900768,-0.009817477042468103,0.01090830782496456,-0.0693563842823812,0.046917554073375514,-0.9964880506453886,1.0,1.0,0.0,-0.0,-0.0,-0.0,-0.0,-0.0,-0.0,0.0,0.0,-0.0,0.0,0.0,0.0,0.0,0.07249537110328674,0.034313030540943146,0.1207108348608017,0.1667165905237198,0.044789861887693405,0.6751608848571777,0.20513220131397247,-0.08796000480651855,-0.14376100897789001,-0.014830072410404682,-0.04214659333229065,0.015582989901304245,0.11897627264261246,0.1489599645137787,0.02056730375625193,0.13075130619108677,0.038555288687348366,0.0024092383682727814,-0.04465307015925646,-0.039078488945961,-0.09061221405863762,-0.02199000120162964,-0.035940252244472504,0.00048127188347280025,0.11163640022277832,0.015589453279972076,-0.009525841102004051,-0.018610544502735138,0.02056730375625193,0.13075130619108677,0.038555288687348366,0.0,-0.04465307015925646,-0.039078488945961,-0.09061221405863762,-0.02199000120162964,-0.035940252244472504,0.00048127188347280025,0.11163640022277832,0.015589453279972076,-0.009525841102004051,-0.018610544502735138,0.014010357862688824,0.12788763740140618,0.04825944464842574,0.006135923151542766,-0.010737865515199285,-0.038349519697141066,-0.09203884727313838,-0.029875128055621758,-0.04835925566502412,-0.0011590077064024887,0.10657553098838204,0.04005394279479181,-0.0011590077064024887,-0.018612300226345788
18.802413564000005,0.0,0.0,-0.031634092692397225,-0.006544984694978736,0.01090830782496456,-0.06935302951084929,0.04793518216191054,-0.9964398504720552,1.0,1.0,0.0,-0.0,-0.0,-0.0,-0.0,-0.0,-0.0,0.0,0.0,-0.0,0.0,0.0,0.0,0.0,0.07223282754421234,0.034674350172281265,0.12012799084186554,0.16660785675048828,0.043769679963588715,0.6757494807243347,0.20511068403720856,-0.08350314944982529,-0.14350204169750214,-0.015311650931835175,-0.04231489077210426,0.01622796803712845,0.11953457444906235,0.1495792269706726,0.02050166786648333,0.1308416360989213,0.038409577682614326,0.002382054924964905,-0.04490811564028263,-0.03893133997917175,-0.0906175933778286,-0.02087578736245632,-0.035875510424375534,0.00036087725311517715,0.11159432586282492,0.015750697813928127,-0.009386265650391579,-0.018455728888511658,0.02050166786648333,0.1308416360989213,0.038409577682614326,0.0,-0.04490811564028263,-0.03893133997917175,-0.0906175933778286,-0.02087578736245632,-0.035875510424375534,0.00036087725311517715,0.11159432586282492,0.015750697813928127,-0.009386265650391579,-0.018455728888511658,0.014010357862688824,0.12788763740140618,0.04825944464842574,0.006135923151542766,-0.010737865515199285,-0.038349519697141066,-0.09203884727313838,-0.028341147267735955,-0.04835925566502412,-0.0011590077064024887,0.10657553098838204,0.04005394279479181,-0.0011590077064024887,-0.018612300226345788
18.821978760000007,0.0,0.0,-0.015271630954950384,-0.00545415391248228,-0.002181661564992912,-0.06935302951084929,0.04793518216191054,-0.9964398504720552,1.0,1.0,0.0,-0.0,-0.0,-0.0,-0.0,-0.0,-0.0,0.07671776931843206,0.0,-0.0,0.0,0.0,0.0,0.0,0.07337059080600739,0.03287053480744362,0.12128326296806335,0.16599953174591064,0.04405307024717331,0.6748651266098022,0.20457647740840912,-0.0839453786611557,-0.14359985291957855,-0.015390253625810146,-0.04334370419383049,0.012468475848436356,0.11881839483976364,0.14958874881267548,0.02078610868193209,0.1303906822577119,0.03869839571416378,0.0022299736738204956,-0.04483726806938648,-0.03915242850780487,-0.09075114503502846,-0.020986344665288925,-0.03589996322989464,0.0003412265796214342,0.11133712250739336,0.014810824766755104,-0.009565310552716255,-0.01845334842801094,0.02078610868193209,0.1303906822577119,0.03869839571416378,0.0,-0.04483726806938648,-0.03915242850780487,-0.09075114503502846,-0.020986344665288925,-0.03589996322989464,0.0003412265796214342,0.11133712250739336,0.014810824766755104,-0.009565310552716255,-0.01845334842801094,0.014010357862688824,0.12788763740140618,0.04825944464842574,0.006135923151542766,-0.010737865515199285,-0.038349519697141066,-0.09203884727313838,-0.028341147267735955,-0.04835925566502412,-0.0011590077064024887,0.10657553098838204,0.04005394279479181,-0.0011590077064024887,-0.018612300226345788
18.841968672000007,0.0,0.0,0.001090830782496456,-0.002181661564992912,-0.019634954084936207,-0.06935302951084929,0.04793518216191054,-0.9964398504720552,1.0,1.0,0.0,-0.0,-0.0,-0.0,-0.0,-0.0,-0.0,0.0,0.0,-0.0,0.0,0.0,0.0,0.0,0.07098011672496796,0.031378328800201416,0.12224504351615906,0.16486331820487976,0.045046523213386536,0.673575758934021,0.20396752655506134,-0.07896696031093597,-0.1442956030368805,-0.01677076332271099,-0.04506513476371765,0.009788576513528824,0.11722820997238159,0.14941726624965668,0.020188490161672235,0.13001763075590134,0.038938840851187706,0.0019459202885627747,-0.044588904827833176,-0.03947477042675018,-0.0909033827483654,-0.019741740077733994,-0.03607390075922012,-3.900844603776932e-06,0.11090676486492157,0.014140849933028221,-0.009962856769561768,-0.01849621906876564,0.020188490161672235,0.13001763075590134,0.038938840851187706,0.0,-0.044588904827833176,-0.03947477042675018,-0.0909033827483654,-0.019741740077733994,-0.03607390075922012,-3.900844603776932e-06,0.11090676486492157,0.014140849933028221,-0.009962856769561768,-0.01849621906876564,0.014010357862688824,0.12788763740140618,0.04825944464842574,0.006135923151542766,-0.010737865515199285,-0.038349519697141066,-0.09203884727313838,-0.028341147267735955,-0.04835925566502412,-0.0011590077064024887,0.10657553098838204,0.04005394279479181,-0.0011590077064024887,-0.018612300226345788
18.862632942999994,0.0,0.0,0.006544984694978736,-0.002181661564992912,-0.014180800172453928,-0.0703679132519756,0.0479317669977225,-0.9963688586547848,1.0,1.0,0.0,-0.0,-0.0,-0.0,-0.0,-0.0,-0.0,0.0,0.0,-0.0,0.0,0.0,0.0,0.0,0.07416769862174988,0.02996743470430374,0.12410096824169159,0.1649951934814453,0.04551377147436142,0.6731425523757935,0.20331783592700958,-0.08390948176383972,-0.1440688818693161,-0.0153227299451828,-0.04458915442228317,0.007092505693435669,0.11687250435352325,0.14950573444366455,0.020985385635867715,0.12966490723192692,0.03940282203257084,0.0019788891077041626,-0.044472092762589455,-0.03958307206630707,-0.09106580540537834,-0.02097737044095993,-0.036017220467329025,0.0003581074997782707,0.11102575995028019,0.013466832228004932,-0.010051783174276352,-0.018474102020263672,0.020985385635867715,0.12966490723192692,0.03940282203257084,0.0,-0.044472092762589455,-0.03958307206630707,-0.09106580540537834,-0.02097737044095993,-0.036017220467329025,0.0003581074997782707,0.11102575995028019,0.013466832228004932,-0.010051783174276352,-0.018474102020263672,0.014010357862688824,0.12788763740140618,0.04825944464842574,0.006135923151542766,-0.010737865515199285,-0.038349519697141066,-0.09203884727313838,-0.028341147267735955,-0.04835925566502412,-0.0011590077064024887,0.10657553098838204,0.04005394279479181,-0.0011590077064024887,-0.018612300226345788
18.88235793300001,0.0,0.0,0.015271630954950384,-0.004363323129985824,-0.014180800172453928,-0.0703679132519756,0.0479317669977225,-0.9963688586547848,1.0,1.0,0.0,-0.0,-0.0,-0.0,-0.0,-0.0,-0.0,0.0,0.0,-0.0,0.0,0.0,0.0,0.0,0.07426184415817261,0.029074572026729584,0.1251193881034851,0.16469824314117432,0.04686620086431503,0.6724124550819397,0.2028258889913559,-0.08426481485366821,-0.14415931701660156,-0.015288170427083969,-0.04522058740258217,0.005477916449308395,0.11650353670120239,0.14897975325584412,0.021008922019973397,0.12944169156253338,0.03965742699801922,0.0019046515226364136,-0.04413398541510105,-0.03976559638977051,-0.09118879213929176,-0.021066203713417053,-0.03603982925415039,0.0003667473793029785,0.11086790170520544,0.013063184916973114,-0.010144025087356567,-0.01860559731721878,0.021008922019973397,0.12944169156253338,0.03965742699801922,0.0,-0.04413398541510105,-0.03976559638977051,-0.09118879213929176,-0.021066203713417053,-0.03603982925415039,0.0003667473793029785,0.11086790170520544,0.013063184916973114,-0.010144025087356567,-0.01860559731721878,0.014010357862688824,0.12788763740140618,0.04825944464842574,0.006135923151542766,-0.010737865515199285,-0.038349519697141066,-0.09203884727313838,-0.028341147267735955,-0.04835925566502412,-0.0011590077064024887,0.10657553098838204,0.04005394279479181,-0.0011590077064024887,-0.018612300226345788
18.902398178,0.0,0.0,0.019634954084936207,-0.002181661564992912,0.007635815477475192,-0.07037131663081822,0.04691421108721215,-0.9964170485262231,1.0,1.0,0.0,-0.0,-0.0,-0.0,-0.0,-0.0,-0.0,0.0,0.0,-0.0,0.0,0.0,0.0,0.0,0.07308341562747955,0.028497029095888138,0.12555541098117828,0.16409733891487122,0.04702945426106453,0.6728457808494568,0.2028200477361679,-0.08339924365282059,-0.14439445734024048,-0.015057647600769997,-0.04507739096879959,0.005301065742969513,0.11560185998678207,0.14764581620693207,0.020714314887300134,0.12929730582982302,0.03976643271744251,0.0017544254660606384,-0.04409317206591368,-0.039657264947891235,-0.09119025245308876,-0.020849810913205147,-0.03609861433506012,0.00042437808588147163,0.11090370081365108,0.013018972240388393,-0.010369444265961647,-0.018939081579446793,0.020714314887300134,0.12929730582982302,0.03976643271744251,0.0,-0.04409317206591368,-0.039657264947891235,-0.09119025245308876,-0.020849810913205147,-0.03609861433506012,0.00042437808588147163,0.11090370081365108,0.013018972240388393,-0.010369444265961647,-0.018939081579446793,0.014010357862688824,0.12788763740140618,0.04825944464842574,0.006135923151542766,-0.010737865515199285,-0.038349519697141066,-0.09203884727313838,-0.028341147267735955,-0.04835925566502412,-0.0011590077064024887,0.10657553098838204,0.04005394279479181,-0.0011590077064024887,-0.018612300226345788
18.922590105000012,0.0,0.0,0.015271630954950384,-0.004363323129985824,0.004363323129985824,-0.07037131663081822,0.04691421108721215,-0.9964170485262231,1.0,1.0,0.0,-0.0,-0.0,-0.0,-0.0,-0.0,-0.0,0.0,0.0,-0.0,0.0,0.0,0.0,0.0,0.07311473786830902,0.02887752652168274,0.1255553513765335,0.16437380015850067,0.04743263125419617,0.6729384660720825,0.20253263413906097,-0.08339104056358337,-0.14465846121311188,-0.014857328496873379,-0.04488353803753853,0.005825374275445938,0.11564194411039352,0.1478140503168106,0.0207221454475075,0.12939243018627167,0.03976641781628132,0.0018235407769680023,-0.04399237781763077,-0.0396340936422348,-0.0912621058523655,-0.020847760140895844,-0.03616461530327797,0.0004744578618556261,0.11095216404646635,0.0131500493735075,-0.010359423235058784,-0.018897023051977158,0.0207221454475075,0.12939243018627167,0.03976641781628132,0.0,-0.04399237781763077,-0.0396340936422348,-0.0912621058523655,-0.020847760140895844,-0.03616461530327797,0.0004744578618556261,0.11095216404646635,0.0131500493735075,-0.010359423235058784,-0.018897023051977158,0.014010357862688824,0.12788763740140618,0.04825944464842574,0.006135923151542766,-0.010737865515199285,-0.038349519697141066,-0.09203884727313838,-0.028341147267735955,-0.04835925566502412,-0.0011590077064024887,0.10657553098838204,0.04005394279479181,-0.0011590077064024887,-0.018612300226345788
18.942542239000005,0.0,0.0,0.015271630954950384,-0.00545415391248228,0.019634954084936207,-0.0693563842823812,0.046917554073375514,-0.9964880506453886,1.0,1.0,0.0,-0.0,-0.0,-0.0,-0.0,-0.0,-0.0,0.0,0.0,-0.0,0.0,0.0,0.0,0.0,0.07233481109142303,0.028978323563933372,0.12516085803508759,0.16387148201465607,0.047033894807100296,0.6737150549888611,0.20290379226207733,-0.08257853984832764,-0.14461509883403778,-0.014952284283936024,-0.04472639411687851,0.006448417901992798,0.11569871008396149,0.14734910428524017,0.020527163753286004,0.12941762944683433,0.03966779448091984,0.0016979612410068512,-0.044092061929404736,-0.03943994641304016,-0.0911693163216114,-0.02064463496208191,-0.036153774708509445,0.00045071891508996487,0.11099145002663136,0.013305810280144215,-0.010345231741666794,-0.019013259559869766,0.020527163753286004,0.12941762944683433,0.03966779448091984,0.0,-0.044092061929404736,-0.03943994641304016,-0.0911693163216114,-0.02064463496208191,-0.036153774708509445,0.00045071891508996487,0.11099145002663136,0.013305810280144215,-0.010345231741666794,-0.019013259559869766,0.014010357862688824,0.12788763740140618,0.04825944464842574,0.006135923151542766,-0.010737865515199285,-0.038349519697141066,-0.09203884727313838,-0.028341147267735955,-0.04835925566502412,-0.0011590077064024887,0.10657553098838204,0.04005394279479181,-0.0011590077064024887,-0.018612300226345788
18.962599280000006,0.0,0.0,0.018544123302439753,-0.007635815477475192,0.011999138607461015,-0.0693563842823812,0.046917554073375514,-0.9964880506453886,1.0,1.0,0.0,-0.0,-0.0,-0.0,-0.0,-0.0,-0.0,0.0,0.0,-0.0,0.0,0.0,0.0,0.0,0.07281790673732758,0.028630360960960388,0.1255963295698166,0.16388262808322906,0.047557104378938675,0.673236608505249,0.20247535407543182,-0.08300992101430893,-0.14476364850997925,-0.014866645447909832,-0.0448593907058239,0.005625955760478973,0.11573325842618942,0.1475355476140976,0.02064793766476214,0.12933063879609108,0.03977666236460209,0.0017007477581501007,-0.04396125953644514,-0.039559558033943176,-0.09127642586827278,-0.020752480253577232,-0.03619091212749481,0.0004721286240965128,0.11095820087939501,0.013100194744765759,-0.01033659465610981,-0.01896664872765541,0.02064793766476214,0.12933063879609108,0.03977666236460209,0.0,-0.04396125953644514,-0.039559558033943176,-0.09127642586827278,-0.020752480253577232,-0.03619091212749481,0.0004721286240965128,0.11095820087939501,0.013100194744765759,-0.01033659465610981,-0.01896664872765541,0.014010357862688824,0.12788763740140618,0.04825944464842574,0.006135923151542766,-0.010737865515199285,-0.038349519697141066,-0.09203884727313838,-0.028341147267735955,-0.04835925566502412,-0.0011590077064024887,0.10657553098838204,0.04005394279479181,-0.0011590077064024887,-0.018612300226345788
